File: LSV ZFO/ZFO_h300_dark.DTA
EXPLAIN
TAG	LSV
TITLE	LABEL	Linear Sweep Voltammetry	Test &Identifier
DATE	LABEL	7/5/2024	Date
TIME	LABEL	16:37:16	Time
NOTES	NOTES	1	&Notes...

PSTAT	PSTAT	L3FNano	Potentiostat
VINIT	POTEN	-5.00000E-001	F	&Initial E (V)
VFINAL	POTEN	6.00000E-001	F	&Final E (V)
SCANRATE	QUANT	9.99998E+000	&Scan Rate (mV/s)
STEPSIZE	QUANT	1.00000E+000	St&ep Size (mV)
IMODE	SELECTOR	0	I/E Range &Mode
IRANGE	QUANT	1.00000E+001	&Max Current (mA)
AREA	QUANT	1.00000E+000	Electrode &Area (cm^2)
ELECTRODETYPE	SELECTOR	0	Electrode Type
STRIPPING	TOGGLE	F	Used for Stripping
POLARITY	TOGGLE	F	Signal Polarity
CONDIT	TWOPARAM	F	1.50000E+001	0.00000E+000	Conditionin&g	Time(s)	E(V)
DELAY	TWOPARAM	F	3.00000E+001	0.00000E+000	Init. De&lay	Time(s)	Stab.(mV/s)
EQDELAY	QUANT	5.00000E+000	Equil. &Time (s)
IRCOMP	SELECTOR	0	IRCom&p
PFCOR	QUANT	5.00000E+001	PF Corr. (ohm)
SAMPLINGMODE	SELECTOR	0	Sampling &Mode
EOC	QUANT	0	Open Circuit (V)
PSTATMODEL	IQUANT	48	Pstat Model
PSTATSECTION	LABEL	IFC1000-07082	Pstat Section
PSTATSERIALNO	LABEL	07082	Pstat Serial Number
CTRLMODE	IQUANT	1	Control Mode
IESTAB	IQUANT	2	I/E Stability
CASPEED	IQUANT	2	Control Amp Speed
CONVENTION	IQUANT	1	Current Convention
ICHRANGE	IQUANT	2	Ich Range
ICHRANGEMODE	TOGGLE	F	Ich Auto Range
ICHOFFSETENABLE	TOGGLE	F	Ich Offset Enable
ICHOFFSET	QUANT	0	Ich Offset (V)
ICHFILTER	IQUANT	3	Ich Filter
VCHRANGE	IQUANT	2	Vch Range
VCHRANGEMODE	TOGGLE	T	Vch Auto Range
VCHOFFSETENABLE	TOGGLE	F	Vch Offset Enable
VCHOFFSET	QUANT	0	Vch Offset (V)
VCHFILTER	IQUANT	3	Vch Filter
IERANGELOWERLIMIT	IQUANT	4	I/E Range Lower Limit
IERANGEMODE	TOGGLE	T	I/E AutoRange
IERANGE	IQUANT	11	I/E Range
ACHSELECT	IQUANT	4	Ach Select
CABLEID	IQUANT	14	Cable ID
DCCALDATE	LABEL	7/3/2024	DC Calibration Date
ACCALDATE	LABEL	7/3/2024	AC Calibration Date
FRAMEWORKVERSION	QUANT	6.24	Framework Version
INSTRUMENTVERSION	LABEL	3.28	Instrument Version
CURVE	TABLE	1101
	Pt	T	Vf	Im	Vu	Sig	Ach	IERange	Over	Cycle
	#	s	V vs. Ref.	A	V	V	V	#	bits	#
	0	0.1	-5.00110E-001	-2.13536E-005	0.00000E+000	-4.99988E-001	0.00000E+000	11	...........	0
	3	0.4	-4.97207E-001	-2.25696E-005	0.00000E+000	-4.96988E-001	0.00000E+000	8	...........	0
	6	0.7	-4.94004E-001	-2.13595E-005	0.00000E+000	-4.93988E-001	0.00000E+000	8	...........	0
	9	1	-4.91101E-001	-2.02328E-005	0.00000E+000	-4.90988E-001	0.00000E+000	8	...........	0
	12	1.3	-4.88098E-001	-1.92361E-005	0.00000E+000	-4.87988E-001	0.00000E+000	8	...........	0
	15	1.6	-4.85095E-001	-1.82993E-005	0.00000E+000	-4.84988E-001	0.00000E+000	8	...........	0
	18	1.9	-4.82092E-001	-1.74259E-005	0.00000E+000	-4.81988E-001	0.00000E+000	8	...........	0
	21	2.2	-4.78989E-001	-1.66426E-005	0.00000E+000	-4.78988E-001	0.00000E+000	8	...........	0
	24	2.5	-4.76086E-001	-1.59492E-005	0.00000E+000	-4.75987E-001	0.00000E+000	8	...........	0
	27	2.8	-4.73083E-001	-1.52091E-005	0.00000E+000	-4.72987E-001	0.00000E+000	8	...........	0
	30	3.1	-4.70080E-001	-1.45824E-005	0.00000E+000	-4.69987E-001	0.00000E+000	8	...........	0
	33	3.4	-4.66977E-001	-1.39024E-005	0.00000E+000	-4.66987E-001	0.00000E+000	8	...........	0
	36	3.7	-4.63974E-001	-1.32690E-005	0.00000E+000	-4.63987E-001	0.00000E+000	8	...........	0
	39	4	-4.60971E-001	-1.27323E-005	0.00000E+000	-4.60987E-001	0.00000E+000	8	...........	0
	42	4.3	-4.58068E-001	-1.21622E-005	0.00000E+000	-4.57987E-001	0.00000E+000	8	...........	0
	45	4.6	-4.54965E-001	-1.16755E-005	0.00000E+000	-4.54987E-001	0.00000E+000	8	...........	0
	48	4.9	-4.51962E-001	-1.11555E-005	0.00000E+000	-4.51987E-001	0.00000E+000	8	...........	0
	51	5.2	-4.49059E-001	-1.07088E-005	0.00000E+000	-4.48986E-001	0.00000E+000	8	...........	0
	54	5.5	-4.45956E-001	-1.01954E-005	0.00000E+000	-4.45986E-001	0.00000E+000	8	...........	0
	57	5.8	-4.43153E-001	-9.81541E-006	0.00000E+000	-4.42986E-001	0.00000E+000	8	...........	0
	60	6.1	-4.40050E-001	-9.42205E-006	0.00000E+000	-4.39986E-001	0.00000E+000	8	...........	0
	63	6.4	-4.37147E-001	-8.96535E-006	0.00000E+000	-4.36986E-001	0.00000E+000	8	...........	0
	66	6.7	-4.34044E-001	-8.57199E-006	0.00000E+000	-4.33986E-001	0.00000E+000	8	...........	0
	69	7	-4.31041E-001	-8.20530E-006	0.00000E+000	-4.30986E-001	0.00000E+000	8	...........	0
	72	7.3	-4.28038E-001	-7.78995E-006	0.00000E+000	-4.27986E-001	0.00000E+000	7	...........	0
	75	7.6	-4.24935E-001	-7.43551E-006	0.00000E+000	-4.24985E-001	0.00000E+000	7	...........	0
	78	7.9	-4.22132E-001	-7.13910E-006	0.00000E+000	-4.21985E-001	0.00000E+000	7	...........	0
	81	8.2	-4.19029E-001	-6.82068E-006	0.00000E+000	-4.18985E-001	0.00000E+000	7	...........	0
	84	8.5	-4.16126E-001	-6.49626E-006	0.00000E+000	-4.15985E-001	0.00000E+000	7	...........	0
	87	8.8	-4.13023E-001	-6.19117E-006	0.00000E+000	-4.12985E-001	0.00000E+000	7	...........	0
	90	9.1	-4.10020E-001	-5.89643E-006	0.00000E+000	-4.09985E-001	0.00000E+000	7	...........	0
	93	9.4	-4.07017E-001	-5.65369E-006	0.00000E+000	-4.06985E-001	0.00000E+000	7	...........	0
	96	9.7	-4.03914E-001	-5.38395E-006	0.00000E+000	-4.03985E-001	0.00000E+000	7	...........	0
	99	10	-4.01011E-001	-5.11421E-006	0.00000E+000	-4.00984E-001	0.00000E+000	7	...........	0
	102	10.3	-3.97908E-001	-4.86348E-006	0.00000E+000	-3.97984E-001	0.00000E+000	7	...........	0
	105	10.6	-3.95005E-001	-4.61474E-006	0.00000E+000	-3.94984E-001	0.00000E+000	7	...........	0
	108	10.9	-3.91902E-001	-4.36634E-006	0.00000E+000	-3.91984E-001	0.00000E+000	7	...........	0
	111	11.2	-3.88899E-001	-4.15795E-006	0.00000E+000	-3.88984E-001	0.00000E+000	7	...........	0
	114	11.5	-3.85996E-001	-3.93689E-006	0.00000E+000	-3.85984E-001	0.00000E+000	7	...........	0
	117	11.8	-3.83093E-001	-3.70649E-006	0.00000E+000	-3.82984E-001	0.00000E+000	7	...........	0
	120	12.1	-3.80090E-001	-3.52244E-006	0.00000E+000	-3.79984E-001	0.00000E+000	7	...........	0
	123	12.4	-3.76887E-001	-3.35273E-006	0.00000E+000	-3.76983E-001	0.00000E+000	7	...........	0
	126	12.7	-3.73984E-001	-3.17401E-006	0.00000E+000	-3.73983E-001	0.00000E+000	7	...........	0
	129	13	-3.70981E-001	-2.97662E-006	0.00000E+000	-3.70983E-001	0.00000E+000	7	...........	0
	132	13.3	-3.68078E-001	-2.81725E-006	0.00000E+000	-3.67983E-001	0.00000E+000	7	...........	0
	135	13.6	-3.64975E-001	-2.67021E-006	0.00000E+000	-3.64983E-001	0.00000E+000	7	...........	0
	138	13.9	-3.62072E-001	-2.49983E-006	0.00000E+000	-3.61983E-001	0.00000E+000	7	...........	0
	141	14.2	-3.58969E-001	-2.37046E-006	0.00000E+000	-3.58983E-001	0.00000E+000	7	...........	0
	144	14.5	-3.56066E-001	-2.24176E-006	0.00000E+000	-3.55983E-001	0.00000E+000	7	...........	0
	147	14.8	-3.52963E-001	-2.10472E-006	0.00000E+000	-3.52982E-001	0.00000E+000	7	...........	0
	150	15.1	-3.49960E-001	-1.98668E-006	0.00000E+000	-3.49982E-001	0.00000E+000	7	...........	0
	153	15.4	-3.46957E-001	-1.84298E-006	0.00000E+000	-3.46982E-001	0.00000E+000	7	...........	0
	156	15.7	-3.43954E-001	-1.72461E-006	0.00000E+000	-3.43982E-001	0.00000E+000	7	...........	0
	159	16	-3.40951E-001	-1.62559E-006	0.00000E+000	-3.40982E-001	0.00000E+000	7	...........	0
	162	16.3	-3.37948E-001	-1.53890E-006	0.00000E+000	-3.37982E-001	0.00000E+000	7	...........	0
	165	16.6	-3.35045E-001	-1.43653E-006	0.00000E+000	-3.34982E-001	0.00000E+000	7	...........	0
	168	16.9	-3.32042E-001	-1.37885E-006	0.00000E+000	-3.31982E-001	0.00000E+000	7	...........	0
	171	17.2	-3.28939E-001	-1.30050E-006	0.00000E+000	-3.28982E-001	0.00000E+000	7	...........	0
	174	17.5	-3.25936E-001	-1.22314E-006	0.00000E+000	-3.25981E-001	0.00000E+000	7	...........	0
	177	17.8	-3.22933E-001	-1.14512E-006	0.00000E+000	-3.22981E-001	0.00000E+000	7	...........	0
	180	18.1	-3.20030E-001	-1.05776E-006	0.00000E+000	-3.19981E-001	0.00000E+000	7	...........	0
	183	18.4	-3.16927E-001	-9.67072E-007	0.00000E+000	-3.16981E-001	0.00000E+000	7	...........	0
	186	18.7	-3.14024E-001	-8.87050E-007	0.00000E+000	-3.13981E-001	0.00000E+000	7	...........	0
	189	19	-3.10921E-001	-8.02026E-007	0.00000E+000	-3.10981E-001	0.00000E+000	7	...........	0
	192	19.3	-3.08018E-001	-7.63016E-007	0.00000E+000	-3.07981E-001	0.00000E+000	7	...........	0
	195	19.6	-3.04915E-001	-7.13669E-007	0.00000E+000	-3.04981E-001	0.00000E+000	7	...........	0
	198	19.9	-3.02013E-001	-6.45317E-007	0.00000E+000	-3.01980E-001	0.00000E+000	7	...........	0
	201	20.2	-2.99010E-001	-5.50957E-007	0.00000E+000	-2.98980E-001	0.00000E+000	7	...........	0
	204	20.5	-2.96007E-001	-4.85273E-007	0.00000E+000	-2.95980E-001	0.00000E+000	7	...........	0
	207	20.8	-2.93004E-001	-4.64267E-007	0.00000E+000	-2.92980E-001	0.00000E+000	7	...........	0
	210	21.1	-2.90101E-001	-3.74242E-007	0.00000E+000	-2.89980E-001	0.00000E+000	7	...........	0
	213	21.4	-2.86998E-001	-3.45234E-007	0.00000E+000	-2.86980E-001	0.00000E+000	7	...........	0
	216	21.7	-2.84095E-001	-2.89886E-007	0.00000E+000	-2.83980E-001	0.00000E+000	7	...........	0
	219	22	-2.80992E-001	-2.49541E-007	0.00000E+000	-2.80980E-001	0.00000E+000	7	...........	0
	222	22.3	-2.77989E-001	-2.05196E-007	0.00000E+000	-2.77979E-001	0.00000E+000	7	...........	0
	225	22.6	-2.74986E-001	-1.94859E-007	0.00000E+000	-2.74979E-001	0.00000E+000	7	...........	0
	228	22.9	-2.71983E-001	-1.39844E-007	0.00000E+000	-2.71979E-001	0.00000E+000	7	...........	0
	231	23.2	-2.68980E-001	-1.21506E-007	0.00000E+000	-2.68979E-001	0.00000E+000	7	...........	0
	234	23.5	-2.65977E-001	-8.74967E-008	0.00000E+000	-2.65979E-001	0.00000E+000	7	...........	0
	237	23.8	-2.62974E-001	-3.51489E-008	0.00000E+000	-2.62979E-001	0.00000E+000	7	...........	0
	240	24.1	-2.60071E-001	-2.98141E-008	0.00000E+000	-2.59979E-001	0.00000E+000	7	...........	0
	243	24.4	-2.56968E-001	1.55317E-008	0.00000E+000	-2.56979E-001	0.00000E+000	7	...........	0
	246	24.7	-2.53965E-001	2.82018E-008	0.00000E+000	-2.53978E-001	0.00000E+000	7	...........	0
	249	25	-2.50962E-001	3.48703E-008	0.00000E+000	-2.50978E-001	0.00000E+000	7	...........	0
	252	25.3	-2.47959E-001	6.52120E-008	0.00000E+000	-2.47978E-001	0.00000E+000	7	...........	0
	255	25.6	-2.44956E-001	9.58871E-008	0.00000E+000	-2.44978E-001	0.00000E+000	7	...........	0
	258	25.9	-2.41963E-001	1.54903E-007	0.00000E+000	-2.41978E-001	0.00000E+000	7	...........	0
	261	26.2	-2.38960E-001	1.20894E-007	0.00000E+000	-2.38978E-001	0.00000E+000	7	...........	0
	264	26.5	-2.35957E-001	1.57237E-007	0.00000E+000	-2.35978E-001	0.00000E+000	7	...........	0
	267	26.8	-2.32974E-001	1.81244E-007	0.00000E+000	-2.32978E-001	0.00000E+000	7	...........	0
	270	27.1	-2.29951E-001	2.30257E-007	0.00000E+000	-2.29977E-001	0.00000E+000	7	...........	0
	273	27.4	-2.26948E-001	2.31591E-007	0.00000E+000	-2.26977E-001	0.00000E+000	7	...........	0
	276	27.7	-2.23955E-001	2.50596E-007	0.00000E+000	-2.23977E-001	0.00000E+000	7	...........	0
	279	28	-2.20972E-001	2.67601E-007	0.00000E+000	-2.20977E-001	0.00000E+000	7	...........	0
	282	28.3	-2.17939E-001	2.78604E-007	0.00000E+000	-2.17977E-001	0.00000E+000	7	...........	0
	285	28.6	-2.14966E-001	2.92274E-007	0.00000E+000	-2.14977E-001	0.00000E+000	7	...........	0
	288	28.9	-2.11953E-001	2.79604E-007	0.00000E+000	-2.11977E-001	0.00000E+000	7	...........	0
	291	29.2	-2.08960E-001	2.74603E-007	0.00000E+000	-2.08977E-001	0.00000E+000	7	...........	0
	294	29.5	-2.05967E-001	2.80938E-007	0.00000E+000	-2.05976E-001	0.00000E+000	7	...........	0
	297	29.8	-2.02964E-001	2.80938E-007	0.00000E+000	-2.02976E-001	0.00000E+000	7	...........	0
	300	30.1	-1.99961E-001	3.03944E-007	0.00000E+000	-1.99976E-001	0.00000E+000	7	...........	0
	303	30.4	-1.96948E-001	3.11613E-007	0.00000E+000	-1.96976E-001	0.00000E+000	7	...........	0
	306	30.7	-1.93965E-001	3.40954E-007	0.00000E+000	-1.93976E-001	0.00000E+000	7	...........	0
	309	31	-1.90932E-001	3.27617E-007	0.00000E+000	-1.90976E-001	0.00000E+000	7	...........	0
	312	31.3	-1.87959E-001	3.11946E-007	0.00000E+000	-1.87976E-001	0.00000E+000	7	...........	0
	315	31.6	-1.84967E-001	3.35286E-007	0.00000E+000	-1.84976E-001	0.00000E+000	7	...........	0
	318	31.9	-1.81974E-001	2.96609E-007	0.00000E+000	-1.81975E-001	0.00000E+000	7	...........	0
	321	32.2	-1.78971E-001	3.27617E-007	0.00000E+000	-1.78975E-001	0.00000E+000	7	...........	0
	324	32.5	-1.75958E-001	3.36286E-007	0.00000E+000	-1.75975E-001	0.00000E+000	7	...........	0
	327	32.8	-1.72945E-001	3.59626E-007	0.00000E+000	-1.72975E-001	0.00000E+000	7	...........	0
	330	33.1	-1.69962E-001	3.37620E-007	0.00000E+000	-1.69975E-001	0.00000E+000	7	...........	0
	333	33.4	-1.67009E-001	3.27284E-007	0.00000E+000	-1.67025E-001	0.00000E+000	7	...........	0
	336	33.7	-1.64036E-001	3.18281E-007	0.00000E+000	-1.64025E-001	0.00000E+000	7	...........	0
	339	34	-1.61023E-001	3.49623E-007	0.00000E+000	-1.61025E-001	0.00000E+000	7	...........	0
	342	34.3	-1.58020E-001	3.41955E-007	0.00000E+000	-1.58025E-001	0.00000E+000	7	...........	0
	345	34.6	-1.55017E-001	3.78965E-007	0.00000E+000	-1.55024E-001	0.00000E+000	7	...........	0
	348	34.9	-1.52034E-001	3.61627E-007	0.00000E+000	-1.52024E-001	0.00000E+000	7	...........	0
	351	35.2	-1.49041E-001	3.85300E-007	0.00000E+000	-1.49024E-001	0.00000E+000	7	...........	0
	354	35.5	-1.46048E-001	3.77965E-007	0.00000E+000	-1.46024E-001	0.00000E+000	7	...........	0
	357	35.8	-1.43035E-001	3.82966E-007	0.00000E+000	-1.43024E-001	0.00000E+000	7	...........	0
	360	36.1	-1.40042E-001	3.97303E-007	0.00000E+000	-1.40024E-001	0.00000E+000	7	...........	0
	363	36.4	-1.37059E-001	3.87967E-007	0.00000E+000	-1.37024E-001	0.00000E+000	7	...........	0
	366	36.7	-1.34056E-001	3.90635E-007	0.00000E+000	-1.34024E-001	0.00000E+000	7	...........	0
	369	37	-1.31033E-001	3.78298E-007	0.00000E+000	-1.31023E-001	0.00000E+000	7	...........	0
	372	37.3	-1.28050E-001	4.11307E-007	0.00000E+000	-1.28023E-001	0.00000E+000	7	...........	0
	375	37.6	-1.25047E-001	3.88968E-007	0.00000E+000	-1.25023E-001	0.00000E+000	7	...........	0
	378	37.9	-1.22034E-001	4.32313E-007	0.00000E+000	-1.22023E-001	0.00000E+000	7	...........	0
	381	38.2	-1.19021E-001	3.89634E-007	0.00000E+000	-1.19023E-001	0.00000E+000	7	...........	0
	384	38.5	-1.16028E-001	4.11307E-007	0.00000E+000	-1.16023E-001	0.00000E+000	7	...........	0
	387	38.8	-1.13035E-001	4.32980E-007	0.00000E+000	-1.13023E-001	0.00000E+000	7	...........	0
	390	39.1	-1.10042E-001	3.94636E-007	0.00000E+000	-1.10023E-001	0.00000E+000	7	...........	0
	393	39.4	-1.07049E-001	4.06973E-007	0.00000E+000	-1.07022E-001	0.00000E+000	7	...........	0
	396	39.7	-1.04046E-001	4.42982E-007	0.00000E+000	-1.04022E-001	0.00000E+000	7	...........	0
	399	40	-1.01023E-001	4.66656E-007	0.00000E+000	-1.01022E-001	0.00000E+000	7	...........	0
	402	40.3	-9.80300E-002	4.37314E-007	0.00000E+000	-9.80221E-002	0.00000E+000	7	...........	0
	405	40.6	-9.50570E-002	4.49984E-007	0.00000E+000	-9.50219E-002	0.00000E+000	7	...........	0
	408	40.9	-9.20440E-002	4.47317E-007	0.00000E+000	-9.20218E-002	0.00000E+000	7	...........	0
	411	41.2	-8.90410E-002	4.54652E-007	0.00000E+000	-8.90217E-002	0.00000E+000	7	...........	0
	414	41.5	-8.60480E-002	4.33980E-007	0.00000E+000	-8.60216E-002	0.00000E+000	7	...........	0
	417	41.8	-8.30550E-002	4.48984E-007	0.00000E+000	-8.30214E-002	0.00000E+000	7	...........	0
	420	42.1	-8.00621E-002	4.39982E-007	0.00000E+000	-8.00213E-002	0.00000E+000	7	...........	0
	423	42.4	-7.70391E-002	4.52318E-007	0.00000E+000	-7.70212E-002	0.00000E+000	7	...........	0
	426	42.7	-7.40461E-002	4.62321E-007	0.00000E+000	-7.40211E-002	0.00000E+000	7	...........	0
	429	43	-7.10531E-002	4.73324E-007	0.00000E+000	-7.10210E-002	0.00000E+000	7	...........	0
	432	43.3	-6.80401E-002	4.77992E-007	0.00000E+000	-6.80208E-002	0.00000E+000	7	...........	0
	435	43.6	-6.50471E-002	4.71657E-007	0.00000E+000	-6.50207E-002	0.00000E+000	7	...........	0
	438	43.9	-6.20441E-002	4.83327E-007	0.00000E+000	-6.20206E-002	0.00000E+000	7	...........	0
	441	44.2	-5.90411E-002	4.59320E-007	0.00000E+000	-5.90205E-002	0.00000E+000	7	...........	0
	444	44.5	-5.60382E-002	4.55653E-007	0.00000E+000	-5.60203E-002	0.00000E+000	7	...........	0
	447	44.8	-5.30452E-002	4.96997E-007	0.00000E+000	-5.30202E-002	0.00000E+000	7	...........	0
	450	45.1	-5.00522E-002	5.28673E-007	0.00000E+000	-5.00201E-002	0.00000E+000	7	...........	0
	453	45.4	-4.70392E-002	4.85327E-007	0.00000E+000	-4.70200E-002	0.00000E+000	7	...........	0
	456	45.7	-4.40562E-002	5.09001E-007	0.00000E+000	-4.40199E-002	0.00000E+000	7	...........	0
	459	46	-4.10332E-002	5.58347E-007	0.00000E+000	-4.10197E-002	0.00000E+000	7	...........	0
	462	46.3	-3.80302E-002	5.66683E-007	0.00000E+000	-3.80196E-002	0.00000E+000	7	...........	0
	465	46.6	-3.50373E-002	5.79353E-007	0.00000E+000	-3.50195E-002	0.00000E+000	7	...........	0
	468	46.9	-3.20343E-002	5.80354E-007	0.00000E+000	-3.20194E-002	0.00000E+000	7	...........	0
	471	47.2	-2.90413E-002	5.85355E-007	0.00000E+000	-2.90192E-002	0.00000E+000	7	...........	0
	474	47.5	-2.60183E-002	5.78686E-007	0.00000E+000	-2.60191E-002	0.00000E+000	7	...........	0
	477	47.8	-2.30181E-002	5.63682E-007	0.00000E+000	-2.30190E-002	0.00000E+000	7	...........	0
	480	48.1	-2.00231E-002	5.74352E-007	0.00000E+000	-2.00189E-002	0.00000E+000	7	...........	0
	483	48.4	-1.70371E-002	5.60015E-007	0.00000E+000	-1.70187E-002	0.00000E+000	7	...........	0
	486	48.7	-1.40321E-002	5.73352E-007	0.00000E+000	-1.40186E-002	0.00000E+000	7	...........	0
	489	49	-1.10271E-002	5.72685E-007	0.00000E+000	-1.10185E-002	0.00000E+000	7	...........	0
	492	49.3	-8.02914E-003	5.67017E-007	0.00000E+000	-8.01838E-003	0.00000E+000	7	...........	0
	495	49.6	-5.03516E-003	5.72685E-007	0.00000E+000	-5.01826E-003	0.00000E+000	7	...........	0
	498	49.9	-2.04518E-003	5.55680E-007	0.00000E+000	-2.01814E-003	0.00000E+000	7	...........	0
	501	50.2	9.81830E-004	5.29006E-007	0.00000E+000	9.81987E-004	0.00000E+000	7	...........	0
	504	50.5	3.96880E-003	5.26339E-007	0.00000E+000	3.98211E-003	0.00000E+000	7	...........	0
	507	50.8	6.96579E-003	5.23671E-007	0.00000E+000	6.98223E-003	0.00000E+000	7	...........	0
	510	51.1	9.95276E-003	5.02332E-007	0.00000E+000	9.98235E-003	0.00000E+000	7	...........	0
	513	51.4	1.29748E-002	5.76352E-007	0.00000E+000	1.29825E-002	0.00000E+000	7	...........	0
	516	51.7	1.59607E-002	5.69350E-007	0.00000E+000	1.59826E-002	0.00000E+000	7	...........	0
	519	52	1.89537E-002	5.88689E-007	0.00000E+000	1.89827E-002	0.00000E+000	7	...........	0
	522	52.3	2.19537E-002	5.68684E-007	0.00000E+000	2.19828E-002	0.00000E+000	7	...........	0
	525	52.6	2.49607E-002	5.67683E-007	0.00000E+000	2.49830E-002	0.00000E+000	7	...........	0
	528	52.9	2.79955E-002	5.75019E-007	0.00000E+000	2.79831E-002	0.00000E+000	7	...........	0
	531	53.2	3.09785E-002	5.35008E-007	0.00000E+000	3.09832E-002	0.00000E+000	7	...........	0
	534	53.5	3.39914E-002	5.46678E-007	0.00000E+000	3.39833E-002	0.00000E+000	7	...........	0
	537	53.8	3.69844E-002	5.54680E-007	0.00000E+000	3.69835E-002	0.00000E+000	7	...........	0
	540	54.1	3.99674E-002	5.58347E-007	0.00000E+000	3.99836E-002	0.00000E+000	7	...........	0
	543	54.4	4.29704E-002	5.50345E-007	0.00000E+000	4.29837E-002	0.00000E+000	7	...........	0
	546	54.7	4.59734E-002	5.60015E-007	0.00000E+000	4.59838E-002	0.00000E+000	7	...........	0
	549	55	4.89664E-002	5.39342E-007	0.00000E+000	4.89840E-002	0.00000E+000	7	...........	0
	552	55.3	5.19693E-002	5.03666E-007	0.00000E+000	5.19841E-002	0.00000E+000	7	...........	0
	555	55.6	5.49723E-002	5.37342E-007	0.00000E+000	5.49842E-002	0.00000E+000	7	...........	0
	558	55.9	5.79553E-002	5.48678E-007	0.00000E+000	5.79843E-002	0.00000E+000	7	...........	0
	561	56.2	6.09783E-002	5.51012E-007	0.00000E+000	6.09844E-002	0.00000E+000	7	...........	0
	564	56.5	6.39713E-002	5.92357E-007	0.00000E+000	6.39846E-002	0.00000E+000	7	...........	0
	567	56.8	6.69543E-002	5.97025E-007	0.00000E+000	6.69847E-002	0.00000E+000	7	...........	0
	570	57.1	6.99873E-002	6.26033E-007	0.00000E+000	6.99848E-002	0.00000E+000	7	...........	0
	573	57.4	7.29703E-002	6.15697E-007	0.00000E+000	7.29849E-002	0.00000E+000	7	...........	0
	576	57.7	7.59632E-002	6.21365E-007	0.00000E+000	7.59851E-002	0.00000E+000	7	...........	0
	579	58	7.89862E-002	6.30701E-007	0.00000E+000	7.89852E-002	0.00000E+000	7	...........	0
	582	58.3	8.19792E-002	6.06361E-007	0.00000E+000	8.19853E-002	0.00000E+000	7	...........	0
	585	58.6	8.49622E-002	5.93691E-007	0.00000E+000	8.49854E-002	0.00000E+000	7	...........	0
	588	58.9	8.79752E-002	5.64683E-007	0.00000E+000	8.79855E-002	0.00000E+000	7	...........	0
	591	59.2	9.09682E-002	5.31673E-007	0.00000E+000	9.09857E-002	0.00000E+000	7	...........	0
	594	59.5	9.39511E-002	5.77686E-007	0.00000E+000	9.39858E-002	0.00000E+000	7	...........	0
	597	59.8	9.69741E-002	5.76686E-007	0.00000E+000	9.69859E-002	0.00000E+000	7	...........	0
	600	60.1	9.99671E-002	5.91357E-007	0.00000E+000	9.99860E-002	0.00000E+000	7	...........	0
	603	60.4	1.02980E-001	6.06361E-007	0.00000E+000	1.02986E-001	0.00000E+000	7	...........	0
	606	60.7	1.05953E-001	6.39703E-007	0.00000E+000	1.05986E-001	0.00000E+000	7	...........	0
	609	61	1.08956E-001	6.49373E-007	0.00000E+000	1.08986E-001	0.00000E+000	7	...........	0
	612	61.3	1.11969E-001	7.03387E-007	0.00000E+000	1.11987E-001	0.00000E+000	7	...........	0
	615	61.6	1.14992E-001	6.91051E-007	0.00000E+000	1.14987E-001	0.00000E+000	7	...........	0
	618	61.9	1.17985E-001	6.33368E-007	0.00000E+000	1.17987E-001	0.00000E+000	7	...........	0
	621	62.2	1.20978E-001	6.78047E-007	0.00000E+000	1.20987E-001	0.00000E+000	7	...........	0
	624	62.5	1.23991E-001	6.78714E-007	0.00000E+000	1.23987E-001	0.00000E+000	7	...........	0
	627	62.8	1.26984E-001	7.29394E-007	0.00000E+000	1.26987E-001	0.00000E+000	7	...........	0
	630	63.1	1.29967E-001	7.27394E-007	0.00000E+000	1.29987E-001	0.00000E+000	7	...........	0
	633	63.4	1.32960E-001	7.06722E-007	0.00000E+000	1.32987E-001	0.00000E+000	7	...........	0
	636	63.7	1.35963E-001	7.10389E-007	0.00000E+000	1.35988E-001	0.00000E+000	7	...........	0
	639	64	1.38956E-001	7.36396E-007	0.00000E+000	1.38988E-001	0.00000E+000	7	...........	0
	642	64.3	1.41969E-001	7.30061E-007	0.00000E+000	1.41988E-001	0.00000E+000	7	...........	0
	645	64.6	1.44982E-001	7.62404E-007	0.00000E+000	1.44988E-001	0.00000E+000	7	...........	0
	648	64.9	1.47965E-001	7.75074E-007	0.00000E+000	1.47988E-001	0.00000E+000	7	...........	0
	651	65.2	1.50958E-001	8.04082E-007	0.00000E+000	1.50988E-001	0.00000E+000	7	...........	0
	654	65.5	1.53981E-001	7.64737E-007	0.00000E+000	1.53988E-001	0.00000E+000	7	...........	0
	657	65.8	1.56984E-001	7.75407E-007	0.00000E+000	1.56988E-001	0.00000E+000	7	...........	0
	660	66.1	1.59967E-001	7.60403E-007	0.00000E+000	1.59988E-001	0.00000E+000	7	...........	0
	663	66.4	1.62970E-001	7.74073E-007	0.00000E+000	1.62989E-001	0.00000E+000	7	...........	0
	666	66.7	1.65973E-001	7.42731E-007	0.00000E+000	1.65989E-001	0.00000E+000	7	...........	0
	669	67	1.68976E-001	7.64071E-007	0.00000E+000	1.68989E-001	0.00000E+000	7	...........	0
	672	67.3	1.71939E-001	7.28394E-007	0.00000E+000	1.71989E-001	0.00000E+000	7	...........	0
	675	67.6	1.74982E-001	7.67738E-007	0.00000E+000	1.74989E-001	0.00000E+000	7	...........	0
	678	67.9	1.77975E-001	7.97080E-007	0.00000E+000	1.77989E-001	0.00000E+000	7	...........	0
	681	68.2	1.80958E-001	7.59403E-007	0.00000E+000	1.80989E-001	0.00000E+000	7	...........	0
	684	68.5	1.83981E-001	8.00414E-007	0.00000E+000	1.83989E-001	0.00000E+000	7	...........	0
	687	68.8	1.86974E-001	8.20419E-007	0.00000E+000	1.86990E-001	0.00000E+000	7	...........	0
	690	69.1	1.89957E-001	8.06082E-007	0.00000E+000	1.89990E-001	0.00000E+000	7	...........	0
	693	69.4	1.92970E-001	8.91772E-007	0.00000E+000	1.92990E-001	0.00000E+000	7	...........	0
	696	69.7	1.95973E-001	8.94440E-007	0.00000E+000	1.95990E-001	0.00000E+000	7	...........	0
	699	70	1.98966E-001	8.90439E-007	0.00000E+000	1.98990E-001	0.00000E+000	7	...........	0
	702	70.3	2.01959E-001	8.59430E-007	0.00000E+000	2.01990E-001	0.00000E+000	7	...........	0
	705	70.6	2.04972E-001	8.58430E-007	0.00000E+000	2.04990E-001	0.00000E+000	7	...........	0
	708	70.9	2.07955E-001	8.74768E-007	0.00000E+000	2.07990E-001	0.00000E+000	7	...........	0
	711	71.2	2.10958E-001	8.63765E-007	0.00000E+000	2.10991E-001	0.00000E+000	7	...........	0
	714	71.5	2.13951E-001	8.57096E-007	0.00000E+000	2.13991E-001	0.00000E+000	7	...........	0
	717	71.8	2.16974E-001	8.53429E-007	0.00000E+000	2.16991E-001	0.00000E+000	7	...........	0
	720	72.1	2.19967E-001	8.54762E-007	0.00000E+000	2.19991E-001	0.00000E+000	7	...........	0
	723	72.4	2.22970E-001	8.41092E-007	0.00000E+000	2.22991E-001	0.00000E+000	7	...........	0
	726	72.7	2.25953E-001	8.31423E-007	0.00000E+000	2.25991E-001	0.00000E+000	7	...........	0
	729	73	2.28966E-001	8.14751E-007	0.00000E+000	2.28991E-001	0.00000E+000	7	...........	0
	732	73.3	2.31958E-001	8.32756E-007	0.00000E+000	2.31991E-001	0.00000E+000	7	...........	0
	735	73.6	2.34961E-001	8.87771E-007	0.00000E+000	2.34992E-001	0.00000E+000	7	...........	0
	738	73.9	2.37954E-001	8.95440E-007	0.00000E+000	2.37992E-001	0.00000E+000	7	...........	0
	741	74.2	2.40957E-001	8.86437E-007	0.00000E+000	2.40992E-001	0.00000E+000	7	...........	0
	744	74.5	2.43960E-001	8.87438E-007	0.00000E+000	2.43992E-001	0.00000E+000	7	...........	0
	747	74.8	2.46943E-001	8.63431E-007	0.00000E+000	2.46992E-001	0.00000E+000	7	...........	0
	750	75.1	2.49966E-001	8.92439E-007	0.00000E+000	2.49992E-001	0.00000E+000	7	...........	0
	753	75.4	2.52929E-001	8.76101E-007	0.00000E+000	2.52992E-001	0.00000E+000	7	...........	0
	756	75.7	2.55922E-001	8.93773E-007	0.00000E+000	2.55992E-001	0.00000E+000	7	...........	0
	759	76	2.58925E-001	8.86771E-007	0.00000E+000	2.58993E-001	0.00000E+000	7	...........	0
	762	76.3	2.61928E-001	8.99441E-007	0.00000E+000	2.61993E-001	0.00000E+000	7	...........	0
	765	76.6	2.64951E-001	8.93773E-007	0.00000E+000	2.64993E-001	0.00000E+000	7	...........	0
	768	76.9	2.68155E-001	8.89438E-007	0.00000E+000	2.67993E-001	0.00000E+000	7	...........	0
	771	77.2	2.71258E-001	8.93106E-007	0.00000E+000	2.70993E-001	0.00000E+000	7	...........	0
	774	77.5	2.74161E-001	8.98441E-007	0.00000E+000	2.73993E-001	0.00000E+000	7	...........	0
	777	77.8	2.77164E-001	9.14112E-007	0.00000E+000	2.76993E-001	0.00000E+000	7	...........	0
	780	78.1	2.80167E-001	9.25782E-007	0.00000E+000	2.79993E-001	0.00000E+000	7	...........	0
	783	78.4	2.83170E-001	8.97441E-007	0.00000E+000	2.82993E-001	0.00000E+000	7	...........	0
	786	78.7	2.86173E-001	9.10111E-007	0.00000E+000	2.85994E-001	0.00000E+000	7	...........	0
	789	79	2.89076E-001	9.15779E-007	0.00000E+000	2.88994E-001	0.00000E+000	7	...........	0
	792	79.3	2.92179E-001	8.99775E-007	0.00000E+000	2.91994E-001	0.00000E+000	7	...........	0
	795	79.6	2.95182E-001	9.13445E-007	0.00000E+000	2.94994E-001	0.00000E+000	7	...........	0
	798	79.9	2.98085E-001	9.60458E-007	0.00000E+000	2.97994E-001	0.00000E+000	7	...........	0
	801	80.2	3.01088E-001	9.50122E-007	0.00000E+000	3.00994E-001	0.00000E+000	7	...........	0
	804	80.5	3.04091E-001	9.74462E-007	0.00000E+000	3.03994E-001	0.00000E+000	7	...........	0
	807	80.8	3.07094E-001	9.70794E-007	0.00000E+000	3.06994E-001	0.00000E+000	7	...........	0
	810	81.1	3.10097E-001	9.72128E-007	0.00000E+000	3.09995E-001	0.00000E+000	7	...........	0
	813	81.4	3.13100E-001	9.59791E-007	0.00000E+000	3.12995E-001	0.00000E+000	7	...........	0
	816	81.7	3.16203E-001	9.82797E-007	0.00000E+000	3.15995E-001	0.00000E+000	7	...........	0
	819	82	3.19106E-001	1.00880E-006	0.00000E+000	3.18995E-001	0.00000E+000	7	...........	0
	822	82.3	3.22209E-001	1.03681E-006	0.00000E+000	3.21995E-001	0.00000E+000	7	...........	0
	825	82.6	3.25212E-001	1.04515E-006	0.00000E+000	3.24995E-001	0.00000E+000	7	...........	0
	828	82.9	3.28215E-001	1.04581E-006	0.00000E+000	3.27995E-001	0.00000E+000	7	...........	0
	831	83.2	3.31218E-001	1.05248E-006	0.00000E+000	3.30995E-001	0.00000E+000	7	...........	0
	834	83.5	3.34121E-001	1.05915E-006	0.00000E+000	3.33996E-001	0.00000E+000	7	...........	0
	837	83.8	3.37224E-001	1.06982E-006	0.00000E+000	3.36996E-001	0.00000E+000	7	...........	0
	840	84.1	3.40227E-001	1.05148E-006	0.00000E+000	3.39996E-001	0.00000E+000	7	...........	0
	843	84.4	3.43230E-001	1.07749E-006	0.00000E+000	3.42996E-001	0.00000E+000	7	...........	0
	846	84.7	3.46133E-001	1.10683E-006	0.00000E+000	3.45996E-001	0.00000E+000	7	...........	0
	849	85	3.49236E-001	1.09850E-006	0.00000E+000	3.48996E-001	0.00000E+000	7	...........	0
	852	85.3	3.52239E-001	1.11350E-006	0.00000E+000	3.51996E-001	0.00000E+000	7	...........	0
	855	85.6	3.55242E-001	1.12750E-006	0.00000E+000	3.54996E-001	0.00000E+000	7	...........	0
	858	85.9	3.58145E-001	1.11283E-006	0.00000E+000	3.57997E-001	0.00000E+000	7	...........	0
	861	86.2	3.61148E-001	1.11950E-006	0.00000E+000	3.60997E-001	0.00000E+000	7	...........	0
	864	86.5	3.64151E-001	1.10817E-006	0.00000E+000	3.63997E-001	0.00000E+000	7	...........	0
	867	86.8	3.67154E-001	1.11917E-006	0.00000E+000	3.66997E-001	0.00000E+000	7	...........	0
	870	87.1	3.70257E-001	1.11583E-006	0.00000E+000	3.69997E-001	0.00000E+000	7	...........	0
	873	87.4	3.73160E-001	1.14084E-006	0.00000E+000	3.72997E-001	0.00000E+000	7	...........	0
	876	87.7	3.76162E-001	1.16018E-006	0.00000E+000	3.75997E-001	0.00000E+000	7	...........	0
	879	88	3.79166E-001	1.17218E-006	0.00000E+000	3.78997E-001	0.00000E+000	7	...........	0
	882	88.3	3.82068E-001	1.15618E-006	0.00000E+000	3.81998E-001	0.00000E+000	7	...........	0
	885	88.6	3.85171E-001	1.15051E-006	0.00000E+000	3.84998E-001	0.00000E+000	7	...........	0
	888	88.9	3.88275E-001	1.18085E-006	0.00000E+000	3.87998E-001	0.00000E+000	7	...........	0
	891	89.2	3.91278E-001	1.17418E-006	0.00000E+000	3.90998E-001	0.00000E+000	7	...........	0
	894	89.5	3.94180E-001	1.18585E-006	0.00000E+000	3.93998E-001	0.00000E+000	7	...........	0
	897	89.8	3.97183E-001	1.17485E-006	0.00000E+000	3.96998E-001	0.00000E+000	7	...........	0
	900	90.1	4.00186E-001	1.17685E-006	0.00000E+000	3.99998E-001	0.00000E+000	7	...........	0
	903	90.4	4.03189E-001	1.18685E-006	0.00000E+000	4.02998E-001	0.00000E+000	7	...........	0
	906	90.7	4.06192E-001	1.20919E-006	0.00000E+000	4.05999E-001	0.00000E+000	7	...........	0
	909	91	4.09195E-001	1.23653E-006	0.00000E+000	4.08999E-001	0.00000E+000	7	...........	0
	912	91.3	4.12198E-001	1.19719E-006	0.00000E+000	4.11999E-001	0.00000E+000	7	...........	0
	915	91.6	4.15201E-001	1.20219E-006	0.00000E+000	4.14999E-001	0.00000E+000	7	...........	0
	918	91.9	4.18304E-001	1.21553E-006	0.00000E+000	4.17999E-001	0.00000E+000	7	...........	0
	921	92.2	4.21207E-001	1.24187E-006	0.00000E+000	4.20999E-001	0.00000E+000	7	...........	0
	924	92.5	4.24210E-001	1.26788E-006	0.00000E+000	4.23999E-001	0.00000E+000	7	...........	0
	927	92.8	4.27213E-001	1.26254E-006	0.00000E+000	4.26999E-001	0.00000E+000	7	...........	0
	930	93.1	4.30116E-001	1.28655E-006	0.00000E+000	4.30000E-001	0.00000E+000	7	...........	0
	933	93.4	4.33219E-001	1.25321E-006	0.00000E+000	4.33000E-001	0.00000E+000	7	...........	0
	936	93.7	4.36222E-001	1.27588E-006	0.00000E+000	4.36000E-001	0.00000E+000	7	...........	0
	939	94	4.39125E-001	1.29155E-006	0.00000E+000	4.39000E-001	0.00000E+000	7	...........	0
	942	94.3	4.42128E-001	1.27421E-006	0.00000E+000	4.42000E-001	0.00000E+000	7	...........	0
	945	94.6	4.45331E-001	1.27888E-006	0.00000E+000	4.45000E-001	0.00000E+000	7	...........	0
	948	94.9	4.48134E-001	1.32256E-006	0.00000E+000	4.48000E-001	0.00000E+000	7	...........	0
	951	95.2	4.51237E-001	1.31689E-006	0.00000E+000	4.51000E-001	0.00000E+000	7	...........	0
	954	95.5	4.54140E-001	1.34956E-006	0.00000E+000	4.54001E-001	0.00000E+000	7	...........	0
	957	95.8	4.57243E-001	1.34956E-006	0.00000E+000	4.57001E-001	0.00000E+000	7	...........	0
	960	96.1	4.60146E-001	1.33789E-006	0.00000E+000	4.60001E-001	0.00000E+000	7	...........	0
	963	96.4	4.63149E-001	1.37290E-006	0.00000E+000	4.63001E-001	0.00000E+000	7	...........	0
	966	96.7	4.66252E-001	1.38891E-006	0.00000E+000	4.66001E-001	0.00000E+000	7	...........	0
	969	97	4.69155E-001	1.37457E-006	0.00000E+000	4.69001E-001	0.00000E+000	7	...........	0
	972	97.3	4.72158E-001	1.41858E-006	0.00000E+000	4.72001E-001	0.00000E+000	7	...........	0
	975	97.6	4.75261E-001	1.43025E-006	0.00000E+000	4.75001E-001	0.00000E+000	7	...........	0
	978	97.9	4.78264E-001	1.43125E-006	0.00000E+000	4.78001E-001	0.00000E+000	7	...........	0
	981	98.2	4.81167E-001	1.42692E-006	0.00000E+000	4.81002E-001	0.00000E+000	7	...........	0
	984	98.5	4.84170E-001	1.44459E-006	0.00000E+000	4.84002E-001	0.00000E+000	7	...........	0
	987	98.8	4.87173E-001	1.44559E-006	0.00000E+000	4.87002E-001	0.00000E+000	7	...........	0
	990	99.1	4.90176E-001	1.48427E-006	0.00000E+000	4.90002E-001	0.00000E+000	7	...........	0
	993	99.4	4.93179E-001	1.47026E-006	0.00000E+000	4.93002E-001	0.00000E+000	7	...........	0
	996	99.7	4.96182E-001	1.48527E-006	0.00000E+000	4.96002E-001	0.00000E+000	7	...........	0
	999	100	4.99185E-001	1.46393E-006	0.00000E+000	4.99002E-001	0.00000E+000	7	...........	0
	1002	100.3	5.02188E-001	1.53395E-006	0.00000E+000	5.02002E-001	0.00000E+000	7	...........	0
	1005	100.6	5.05291E-001	1.49427E-006	0.00000E+000	5.05003E-001	0.00000E+000	7	...........	0
	1008	100.9	5.08194E-001	1.50561E-006	0.00000E+000	5.08003E-001	0.00000E+000	7	...........	0
	1011	101.2	5.11297E-001	1.53795E-006	0.00000E+000	5.11003E-001	0.00000E+000	7	...........	0
	1014	101.5	5.14200E-001	1.52528E-006	0.00000E+000	5.14003E-001	0.00000E+000	7	...........	0
	1017	101.8	5.17303E-001	1.52461E-006	0.00000E+000	5.17003E-001	0.00000E+000	7	...........	0
	1020	102.1	5.20206E-001	1.55295E-006	0.00000E+000	5.20003E-001	0.00000E+000	7	...........	0
	1023	102.4	5.23309E-001	1.58696E-006	0.00000E+000	5.23003E-001	0.00000E+000	7	...........	0
	1026	102.7	5.26212E-001	1.59730E-006	0.00000E+000	5.26003E-001	0.00000E+000	7	...........	0
	1029	103	5.29215E-001	1.59196E-006	0.00000E+000	5.29004E-001	0.00000E+000	7	...........	0
	1032	103.3	5.32218E-001	1.62831E-006	0.00000E+000	5.32004E-001	0.00000E+000	7	...........	0
	1035	103.6	5.35221E-001	1.65098E-006	0.00000E+000	5.35004E-001	0.00000E+000	7	...........	0
	1038	103.9	5.38224E-001	1.68166E-006	0.00000E+000	5.38004E-001	0.00000E+000	7	...........	0
	1041	104.2	5.41227E-001	1.70166E-006	0.00000E+000	5.41004E-001	0.00000E+000	7	...........	0
	1044	104.5	5.44130E-001	1.68599E-006	0.00000E+000	5.44004E-001	0.00000E+000	7	...........	0
	1047	104.8	5.47233E-001	1.74701E-006	0.00000E+000	5.47004E-001	0.00000E+000	7	...........	0
	1050	105.1	5.50136E-001	1.74534E-006	0.00000E+000	5.50004E-001	0.00000E+000	7	...........	0
	1053	105.4	5.53339E-001	1.76201E-006	0.00000E+000	5.53005E-001	0.00000E+000	7	...........	0
	1056	105.7	5.56142E-001	1.78535E-006	0.00000E+000	5.56005E-001	0.00000E+000	7	...........	0
	1059	106	5.59245E-001	1.84370E-006	0.00000E+000	5.59005E-001	0.00000E+000	7	...........	0
	1062	106.3	5.62248E-001	1.85104E-006	0.00000E+000	5.62005E-001	0.00000E+000	7	...........	0
	1065	106.6	5.65251E-001	1.90072E-006	0.00000E+000	5.65005E-001	0.00000E+000	7	...........	0
	1068	106.9	5.68254E-001	1.90738E-006	0.00000E+000	5.68005E-001	0.00000E+000	7	...........	0
	1071	107.2	5.71257E-001	1.94406E-006	0.00000E+000	5.71005E-001	0.00000E+000	7	...........	0
	1074	107.5	5.74160E-001	1.97340E-006	0.00000E+000	5.74005E-001	0.00000E+000	7	...........	0
	1077	107.8	5.77263E-001	1.99107E-006	0.00000E+000	5.77006E-001	0.00000E+000	7	...........	0
	1080	108.1	5.80266E-001	2.01608E-006	0.00000E+000	5.80006E-001	0.00000E+000	7	...........	0
	1083	108.4	5.83269E-001	2.07376E-006	0.00000E+000	5.83006E-001	0.00000E+000	7	...........	0
	1086	108.7	5.86372E-001	2.11011E-006	0.00000E+000	5.86006E-001	0.00000E+000	7	...........	0
	1089	109	5.89275E-001	2.15312E-006	0.00000E+000	5.89006E-001	0.00000E+000	7	...........	0
	1092	109.3	5.92278E-001	2.15045E-006	0.00000E+000	5.92006E-001	0.00000E+000	7	...........	0
	1095	109.6	5.95281E-001	2.19780E-006	0.00000E+000	5.95006E-001	0.00000E+000	7	...........	0
	1098	109.9	5.98384E-001	2.22747E-006	0.00000E+000	5.98006E-001	0.00000E+000	7	...........	0
	1100	110.1	6.00286E-001	2.26315E-006	0.00000E+000	6.00006E-001	0.00000E+000	7	...........	0