File: LSV ZFO/ZFO_h200_chop.DTA
EXPLAIN
TAG	LSV
TITLE	LABEL	Linear Sweep Voltammetry	Test &Identifier
DATE	LABEL	7/5/2024	Date
TIME	LABEL	16:30:21	Time
NOTES	NOTES	1	&Notes...

PSTAT	PSTAT	L3FNano	Potentiostat
VINIT	POTEN	-5.00000E-001	F	&Initial E (V)
VFINAL	POTEN	6.00000E-001	F	&Final E (V)
SCANRATE	QUANT	9.99998E+000	&Scan Rate (mV/s)
STEPSIZE	QUANT	1.00000E+000	St&ep Size (mV)
IMODE	SELECTOR	0	I/E Range &Mode
IRANGE	QUANT	1.00000E+001	&Max Current (mA)
AREA	QUANT	1.00000E+000	Electrode &Area (cm^2)
ELECTRODETYPE	SELECTOR	0	Electrode Type
STRIPPING	TOGGLE	F	Used for Stripping
POLARITY	TOGGLE	F	Signal Polarity
CONDIT	TWOPARAM	F	1.50000E+001	0.00000E+000	Conditionin&g	Time(s)	E(V)
DELAY	TWOPARAM	F	3.00000E+001	0.00000E+000	Init. De&lay	Time(s)	Stab.(mV/s)
EQDELAY	QUANT	5.00000E+000	Equil. &Time (s)
IRCOMP	SELECTOR	0	IRCom&p
PFCOR	QUANT	5.00000E+001	PF Corr. (ohm)
SAMPLINGMODE	SELECTOR	0	Sampling &Mode
EOC	QUANT	0	Open Circuit (V)
PSTATMODEL	IQUANT	48	Pstat Model
PSTATSECTION	LABEL	IFC1000-07082	Pstat Section
PSTATSERIALNO	LABEL	07082	Pstat Serial Number
CTRLMODE	IQUANT	1	Control Mode
IESTAB	IQUANT	2	I/E Stability
CASPEED	IQUANT	2	Control Amp Speed
CONVENTION	IQUANT	1	Current Convention
ICHRANGE	IQUANT	2	Ich Range
ICHRANGEMODE	TOGGLE	F	Ich Auto Range
ICHOFFSETENABLE	TOGGLE	F	Ich Offset Enable
ICHOFFSET	QUANT	0	Ich Offset (V)
ICHFILTER	IQUANT	3	Ich Filter
VCHRANGE	IQUANT	2	Vch Range
VCHRANGEMODE	TOGGLE	T	Vch Auto Range
VCHOFFSETENABLE	TOGGLE	F	Vch Offset Enable
VCHOFFSET	QUANT	0	Vch Offset (V)
VCHFILTER	IQUANT	3	Vch Filter
IERANGELOWERLIMIT	IQUANT	4	I/E Range Lower Limit
IERANGEMODE	TOGGLE	T	I/E AutoRange
IERANGE	IQUANT	11	I/E Range
ACHSELECT	IQUANT	4	Ach Select
CABLEID	IQUANT	14	Cable ID
DCCALDATE	LABEL	7/3/2024	DC Calibration Date
ACCALDATE	LABEL	7/3/2024	AC Calibration Date
FRAMEWORKVERSION	QUANT	6.24	Framework Version
INSTRUMENTVERSION	LABEL	3.28	Instrument Version
CURVE	TABLE	1101
	Pt	T	Vf	Im	Vu	Sig	Ach	IERange	Over	Cycle
	#	s	V vs. Ref.	A	V	V	V	#	bits	#
	0	0.1	-5.00110E-001	-1.94370E-004	0.00000E+000	-4.99988E-001	0.00000E+000	11	...........	0
	3	0.4	-4.97007E-001	-1.78904E-004	0.00000E+000	-4.96988E-001	0.00000E+000	9	...........	0
	6	0.7	-4.94004E-001	-1.65686E-004	0.00000E+000	-4.93988E-001	0.00000E+000	9	...........	0
	9	1	-4.91101E-001	-1.53967E-004	0.00000E+000	-4.90988E-001	0.00000E+000	9	...........	0
	12	1.3	-4.88098E-001	-1.44012E-004	0.00000E+000	-4.87988E-001	0.00000E+000	9	...........	0
	15	1.6	-4.85095E-001	-1.34723E-004	0.00000E+000	-4.84988E-001	0.00000E+000	9	...........	0
	18	1.9	-4.82092E-001	-1.26099E-004	0.00000E+000	-4.81988E-001	0.00000E+000	9	...........	0
	21	2.2	-4.78989E-001	-1.18841E-004	0.00000E+000	-4.78988E-001	0.00000E+000	9	...........	0
	24	2.5	-4.75986E-001	-1.11616E-004	0.00000E+000	-4.75987E-001	0.00000E+000	9	...........	0
	27	2.8	-4.73083E-001	-1.05357E-004	0.00000E+000	-4.72987E-001	0.00000E+000	9	...........	0
	30	3.1	-4.70080E-001	-9.91642E-005	0.00000E+000	-4.69987E-001	0.00000E+000	9	...........	0
	33	3.4	-4.67077E-001	-9.30714E-005	0.00000E+000	-4.66987E-001	0.00000E+000	9	...........	0
	36	3.7	-4.64074E-001	-8.79774E-005	0.00000E+000	-4.63987E-001	0.00000E+000	9	...........	0
	39	4	-4.61071E-001	-8.30165E-005	0.00000E+000	-4.60987E-001	0.00000E+000	9	...........	0
	42	4.3	-4.58068E-001	-7.89869E-005	0.00000E+000	-4.57987E-001	0.00000E+000	8	...........	0
	45	4.6	-4.55065E-001	-7.47366E-005	0.00000E+000	-4.54987E-001	0.00000E+000	8	...........	0
	48	4.9	-4.52062E-001	-7.02130E-005	0.00000E+000	-4.51987E-001	0.00000E+000	8	...........	0
	51	5.2	-4.49059E-001	-6.60293E-005	0.00000E+000	-4.48986E-001	0.00000E+000	8	...........	0
	54	5.5	-4.45956E-001	-6.18524E-005	0.00000E+000	-4.45986E-001	0.00000E+000	8	...........	0
	57	5.8	-4.42953E-001	-5.81755E-005	0.00000E+000	-4.42986E-001	0.00000E+000	8	...........	0
	60	6.1	-4.39950E-001	-5.81955E-005	0.00000E+000	-4.39986E-001	0.00000E+000	8	...........	0
	63	6.4	-4.37147E-001	-5.11083E-005	0.00000E+000	-4.36986E-001	0.00000E+000	8	...........	0
	66	6.7	-4.34044E-001	-4.79914E-005	0.00000E+000	-4.33986E-001	0.00000E+000	8	...........	0
	69	7	-4.30941E-001	-4.47879E-005	0.00000E+000	-4.30986E-001	0.00000E+000	8	...........	0
	72	7.3	-4.28038E-001	-4.20010E-005	0.00000E+000	-4.27986E-001	0.00000E+000	8	...........	0
	75	7.6	-4.25035E-001	-3.93475E-005	0.00000E+000	-4.24985E-001	0.00000E+000	8	...........	0
	78	7.9	-4.22032E-001	-3.68373E-005	0.00000E+000	-4.21985E-001	0.00000E+000	8	...........	0
	81	8.2	-4.19029E-001	-3.48472E-005	0.00000E+000	-4.18985E-001	0.00000E+000	8	...........	0
	84	8.5	-4.16026E-001	-3.26803E-005	0.00000E+000	-4.15985E-001	0.00000E+000	8	...........	0
	87	8.8	-4.13123E-001	-3.06635E-005	0.00000E+000	-4.12985E-001	0.00000E+000	8	...........	0
	90	9.1	-4.10020E-001	-2.83500E-005	0.00000E+000	-4.09985E-001	0.00000E+000	8	...........	0
	93	9.4	-4.07017E-001	-2.65532E-005	0.00000E+000	-4.06985E-001	0.00000E+000	8	...........	0
	96	9.7	-4.04014E-001	-2.46164E-005	0.00000E+000	-4.03985E-001	0.00000E+000	8	...........	0
	99	10	-4.01011E-001	-2.27930E-005	0.00000E+000	-4.00984E-001	0.00000E+000	8	...........	0
	102	10.3	-3.98108E-001	-2.26763E-005	0.00000E+000	-3.97984E-001	0.00000E+000	8	...........	0
	105	10.6	-3.95005E-001	-2.06162E-005	0.00000E+000	-3.94984E-001	0.00000E+000	8	...........	0
	108	10.9	-3.92002E-001	-1.84160E-005	0.00000E+000	-3.91984E-001	0.00000E+000	8	...........	0
	111	11.2	-3.88999E-001	-1.68626E-005	0.00000E+000	-3.88984E-001	0.00000E+000	8	...........	0
	114	11.5	-3.85996E-001	-1.51925E-005	0.00000E+000	-3.85984E-001	0.00000E+000	8	...........	0
	117	11.8	-3.83093E-001	-1.73026E-005	0.00000E+000	-3.82984E-001	0.00000E+000	8	...........	0
	120	12.1	-3.79990E-001	-1.60225E-005	0.00000E+000	-3.79984E-001	0.00000E+000	8	...........	0
	123	12.4	-3.76987E-001	-1.46991E-005	0.00000E+000	-3.76983E-001	0.00000E+000	8	...........	0
	126	12.7	-3.73884E-001	-1.33923E-005	0.00000E+000	-3.73983E-001	0.00000E+000	8	...........	0
	129	13	-3.71081E-001	-1.20189E-005	0.00000E+000	-3.70983E-001	0.00000E+000	8	...........	0
	132	13.3	-3.67878E-001	-1.09855E-005	0.00000E+000	-3.67983E-001	0.00000E+000	8	...........	0
	135	13.6	-3.64975E-001	-9.71541E-006	0.00000E+000	-3.64983E-001	0.00000E+000	8	...........	0
	138	13.9	-3.61972E-001	-8.56532E-006	0.00000E+000	-3.61983E-001	0.00000E+000	8	...........	0
	141	14.2	-3.59069E-001	-7.72760E-006	0.00000E+000	-3.58983E-001	0.00000E+000	7	...........	0
	144	14.5	-3.55866E-001	-6.58628E-006	0.00000E+000	-3.55983E-001	0.00000E+000	7	...........	0
	147	14.8	-3.53063E-001	-5.64302E-006	0.00000E+000	-3.52982E-001	0.00000E+000	7	...........	0
	150	15.1	-3.49960E-001	-4.81413E-006	0.00000E+000	-3.49982E-001	0.00000E+000	7	...........	0
	153	15.4	-3.47057E-001	-1.95568E-006	0.00000E+000	-3.46982E-001	0.00000E+000	7	...........	0
	156	15.7	-3.43954E-001	-2.48215E-006	0.00000E+000	-3.43982E-001	0.00000E+000	7	...........	0
	159	16	-3.41051E-001	-1.83631E-006	0.00000E+000	-3.40982E-001	0.00000E+000	7	...........	0
	162	16.3	-3.37948E-001	-1.18547E-006	0.00000E+000	-3.37982E-001	0.00000E+000	7	...........	0
	165	16.6	-3.34945E-001	-4.63600E-007	0.00000E+000	-3.34982E-001	0.00000E+000	7	...........	0
	168	16.9	-3.31942E-001	3.16281E-007	0.00000E+000	-3.31982E-001	0.00000E+000	7	...........	0
	171	17.2	-3.28939E-001	1.17518E-006	0.00000E+000	-3.28982E-001	0.00000E+000	7	...........	0
	174	17.5	-3.25936E-001	1.85504E-006	0.00000E+000	-3.25981E-001	0.00000E+000	7	...........	0
	177	17.8	-3.23033E-001	2.66026E-006	0.00000E+000	-3.22981E-001	0.00000E+000	7	...........	0
	180	18.1	-3.20030E-001	3.24642E-006	0.00000E+000	-3.19981E-001	0.00000E+000	7	...........	0
	183	18.4	-3.16927E-001	4.10499E-006	0.00000E+000	-3.16981E-001	0.00000E+000	7	...........	0
	186	18.7	-3.14024E-001	4.88054E-006	0.00000E+000	-3.13981E-001	0.00000E+000	7	...........	0
	189	19	-3.11021E-001	5.60207E-006	0.00000E+000	-3.10981E-001	0.00000E+000	7	...........	0
	192	19.3	-3.08018E-001	6.35461E-006	0.00000E+000	-3.07981E-001	0.00000E+000	7	...........	0
	195	19.6	-3.05116E-001	7.12382E-006	0.00000E+000	-3.04981E-001	0.00000E+000	7	...........	0
	198	19.9	-3.01912E-001	7.82068E-006	0.00000E+000	-3.01980E-001	0.00000E+000	7	...........	0
	201	20.2	-2.99010E-001	6.04219E-006	0.00000E+000	-2.98980E-001	0.00000E+000	7	...........	0
	204	20.5	-2.96007E-001	8.13476E-006	0.00000E+000	-2.95980E-001	0.00000E+000	7	...........	0
	207	20.8	-2.93004E-001	9.18258E-006	0.00000E+000	-2.92980E-001	0.00000E+000	8	...........	0
	210	21.1	-2.90001E-001	1.01727E-005	0.00000E+000	-2.89980E-001	0.00000E+000	8	...........	0
	213	21.4	-2.86998E-001	1.09794E-005	0.00000E+000	-2.86980E-001	0.00000E+000	8	...........	0
	216	21.7	-2.83995E-001	1.17394E-005	0.00000E+000	-2.83980E-001	0.00000E+000	8	...........	0
	219	22	-2.80992E-001	1.27062E-005	0.00000E+000	-2.80980E-001	0.00000E+000	8	...........	0
	222	22.3	-2.77989E-001	1.35129E-005	0.00000E+000	-2.77979E-001	0.00000E+000	8	...........	0
	225	22.6	-2.74986E-001	1.43529E-005	0.00000E+000	-2.74979E-001	0.00000E+000	8	...........	0
	228	22.9	-2.71983E-001	1.51263E-005	0.00000E+000	-2.71979E-001	0.00000E+000	8	...........	0
	231	23.2	-2.68980E-001	1.59131E-005	0.00000E+000	-2.68979E-001	0.00000E+000	8	...........	0
	234	23.5	-2.66077E-001	1.66431E-005	0.00000E+000	-2.65979E-001	0.00000E+000	8	...........	0
	237	23.8	-2.63074E-001	1.74732E-005	0.00000E+000	-2.62979E-001	0.00000E+000	8	...........	0
	240	24.1	-2.59971E-001	1.83732E-005	0.00000E+000	-2.59979E-001	0.00000E+000	8	...........	0
	243	24.4	-2.56968E-001	1.95066E-005	0.00000E+000	-2.56979E-001	0.00000E+000	8	...........	0
	246	24.7	-2.54065E-001	2.05267E-005	0.00000E+000	-2.53978E-001	0.00000E+000	8	...........	0
	249	25	-2.50962E-001	2.15368E-005	0.00000E+000	-2.50978E-001	0.00000E+000	8	...........	0
	252	25.3	-2.47959E-001	3.47177E-005	0.00000E+000	-2.47978E-001	0.00000E+000	8	...........	0
	255	25.6	-2.45056E-001	2.55337E-005	0.00000E+000	-2.44978E-001	0.00000E+000	8	...........	0
	258	25.9	-2.41913E-001	2.56471E-005	0.00000E+000	-2.41978E-001	0.00000E+000	8	...........	0
	261	26.2	-2.38940E-001	2.62571E-005	0.00000E+000	-2.38978E-001	0.00000E+000	8	...........	0
	264	26.5	-2.35927E-001	2.74372E-005	0.00000E+000	-2.35978E-001	0.00000E+000	8	...........	0
	267	26.8	-2.32944E-001	2.78772E-005	0.00000E+000	-2.32978E-001	0.00000E+000	8	...........	0
	270	27.1	-2.29961E-001	2.84606E-005	0.00000E+000	-2.29977E-001	0.00000E+000	8	...........	0
	273	27.4	-2.26968E-001	2.89873E-005	0.00000E+000	-2.26977E-001	0.00000E+000	8	...........	0
	276	27.7	-2.23945E-001	2.99874E-005	0.00000E+000	-2.23977E-001	0.00000E+000	8	...........	0
	279	28	-2.20952E-001	3.08708E-005	0.00000E+000	-2.20977E-001	0.00000E+000	8	...........	0
	282	28.3	-2.17929E-001	3.11341E-005	0.00000E+000	-2.17977E-001	0.00000E+000	8	...........	0
	285	28.6	-2.14976E-001	3.19842E-005	0.00000E+000	-2.14977E-001	0.00000E+000	8	...........	0
	288	28.9	-2.11943E-001	3.23009E-005	0.00000E+000	-2.11977E-001	0.00000E+000	8	...........	0
	291	29.2	-2.08950E-001	3.27009E-005	0.00000E+000	-2.08977E-001	0.00000E+000	8	...........	0
	294	29.5	-2.05947E-001	3.29276E-005	0.00000E+000	-2.05976E-001	0.00000E+000	8	...........	0
	297	29.8	-2.02974E-001	3.37210E-005	0.00000E+000	-2.02976E-001	0.00000E+000	8	...........	0
	300	30.1	-1.99921E-001	3.30709E-005	0.00000E+000	-1.99976E-001	0.00000E+000	8	...........	0
	303	30.4	-1.96948E-001	3.04507E-005	0.00000E+000	-1.96976E-001	0.00000E+000	8	...........	0
	306	30.7	-1.93955E-001	3.15541E-005	0.00000E+000	-1.93976E-001	0.00000E+000	8	...........	0
	309	31	-1.90942E-001	3.19875E-005	0.00000E+000	-1.90976E-001	0.00000E+000	8	...........	0
	312	31.3	-1.87939E-001	3.21008E-005	0.00000E+000	-1.87976E-001	0.00000E+000	8	...........	0
	315	31.6	-1.84946E-001	3.22742E-005	0.00000E+000	-1.84976E-001	0.00000E+000	8	...........	0
	318	31.9	-1.81943E-001	3.25542E-005	0.00000E+000	-1.81975E-001	0.00000E+000	8	...........	0
	321	32.2	-1.78951E-001	3.23909E-005	0.00000E+000	-1.78975E-001	0.00000E+000	8	...........	0
	324	32.5	-1.75917E-001	3.24675E-005	0.00000E+000	-1.75975E-001	0.00000E+000	8	...........	0
	327	32.8	-1.72935E-001	3.23775E-005	0.00000E+000	-1.72975E-001	0.00000E+000	8	...........	0
	330	33.1	-1.69952E-001	3.21208E-005	0.00000E+000	-1.69975E-001	0.00000E+000	8	...........	0
	333	33.4	-1.67019E-001	3.20808E-005	0.00000E+000	-1.67025E-001	0.00000E+000	8	...........	0
	336	33.7	-1.63996E-001	3.23109E-005	0.00000E+000	-1.64025E-001	0.00000E+000	8	...........	0
	339	34	-1.61023E-001	3.23742E-005	0.00000E+000	-1.61025E-001	0.00000E+000	8	...........	0
	342	34.3	-1.58010E-001	3.24375E-005	0.00000E+000	-1.58025E-001	0.00000E+000	8	...........	0
	345	34.6	-1.55007E-001	3.23709E-005	0.00000E+000	-1.55024E-001	0.00000E+000	8	...........	0
	348	34.9	-1.52034E-001	3.24942E-005	0.00000E+000	-1.52024E-001	0.00000E+000	8	...........	0
	351	35.2	-1.49041E-001	5.34257E-005	0.00000E+000	-1.49024E-001	0.00000E+000	8	...........	0
	354	35.5	-1.46048E-001	3.78313E-005	0.00000E+000	-1.46024E-001	0.00000E+000	8	...........	0
	357	35.8	-1.43015E-001	3.60945E-005	0.00000E+000	-1.43024E-001	0.00000E+000	8	...........	0
	360	36.1	-1.40042E-001	3.45144E-005	0.00000E+000	-1.40024E-001	0.00000E+000	8	...........	0
	363	36.4	-1.36989E-001	3.50344E-005	0.00000E+000	-1.37024E-001	0.00000E+000	8	...........	0
	366	36.7	-1.34046E-001	3.51411E-005	0.00000E+000	-1.34024E-001	0.00000E+000	8	...........	0
	369	37	-1.31043E-001	3.46277E-005	0.00000E+000	-1.31023E-001	0.00000E+000	8	...........	0
	372	37.3	-1.28100E-001	3.53511E-005	0.00000E+000	-1.28023E-001	0.00000E+000	8	...........	0
	375	37.6	-1.25027E-001	3.56611E-005	0.00000E+000	-1.25023E-001	0.00000E+000	8	...........	0
	378	37.9	-1.22034E-001	3.48477E-005	0.00000E+000	-1.22023E-001	0.00000E+000	8	...........	0
	381	38.2	-1.19061E-001	3.50044E-005	0.00000E+000	-1.19023E-001	0.00000E+000	8	...........	0
	384	38.5	-1.15988E-001	3.47610E-005	0.00000E+000	-1.16023E-001	0.00000E+000	8	...........	0
	387	38.8	-1.13055E-001	3.43443E-005	0.00000E+000	-1.13023E-001	0.00000E+000	8	...........	0
	390	39.1	-1.10022E-001	3.45043E-005	0.00000E+000	-1.10023E-001	0.00000E+000	8	...........	0
	393	39.4	-1.07049E-001	3.52611E-005	0.00000E+000	-1.07022E-001	0.00000E+000	8	...........	0
	396	39.7	-1.04036E-001	3.55011E-005	0.00000E+000	-1.04022E-001	0.00000E+000	8	...........	0
	399	40	-1.01033E-001	3.58778E-005	0.00000E+000	-1.01022E-001	0.00000E+000	8	...........	0
	402	40.3	-9.80300E-002	2.98307E-005	0.00000E+000	-9.80221E-002	0.00000E+000	8	...........	0
	405	40.6	-9.50570E-002	3.23975E-005	0.00000E+000	-9.50219E-002	0.00000E+000	8	...........	0
	408	40.9	-9.20240E-002	3.29809E-005	0.00000E+000	-9.20218E-002	0.00000E+000	8	...........	0
	411	41.2	-8.90310E-002	3.35276E-005	0.00000E+000	-8.90217E-002	0.00000E+000	8	...........	0
	414	41.5	-8.60280E-002	3.37743E-005	0.00000E+000	-8.60216E-002	0.00000E+000	8	...........	0
	417	41.8	-8.30250E-002	3.40076E-005	0.00000E+000	-8.30214E-002	0.00000E+000	8	...........	0
	420	42.1	-8.00621E-002	3.41177E-005	0.00000E+000	-8.00213E-002	0.00000E+000	8	...........	0
	423	42.4	-7.70391E-002	3.41910E-005	0.00000E+000	-7.70212E-002	0.00000E+000	8	...........	0
	426	42.7	-7.40561E-002	3.42177E-005	0.00000E+000	-7.40211E-002	0.00000E+000	8	...........	0
	429	43	-7.10531E-002	3.47110E-005	0.00000E+000	-7.10210E-002	0.00000E+000	8	...........	0
	432	43.3	-6.80601E-002	3.47977E-005	0.00000E+000	-6.80208E-002	0.00000E+000	8	...........	0
	435	43.6	-6.50371E-002	3.48910E-005	0.00000E+000	-6.50207E-002	0.00000E+000	8	...........	0
	438	43.9	-6.20341E-002	3.50844E-005	0.00000E+000	-6.20206E-002	0.00000E+000	8	...........	0
	441	44.2	-5.90512E-002	3.53177E-005	0.00000E+000	-5.90205E-002	0.00000E+000	8	...........	0
	444	44.5	-5.60282E-002	3.53077E-005	0.00000E+000	-5.60203E-002	0.00000E+000	8	...........	0
	447	44.8	-5.30352E-002	3.52277E-005	0.00000E+000	-5.30202E-002	0.00000E+000	8	...........	0
	450	45.1	-5.00722E-002	3.56044E-005	0.00000E+000	-5.00201E-002	0.00000E+000	8	...........	0
	453	45.4	-4.70492E-002	6.82967E-005	0.00000E+000	-4.70200E-002	0.00000E+000	8	...........	0
	456	45.7	-4.40462E-002	4.43617E-005	0.00000E+000	-4.40199E-002	0.00000E+000	8	...........	0
	459	46	-4.10332E-002	4.11681E-005	0.00000E+000	-4.10197E-002	0.00000E+000	8	...........	0
	462	46.3	-3.80102E-002	3.99181E-005	0.00000E+000	-3.80196E-002	0.00000E+000	8	...........	0
	465	46.6	-3.50473E-002	3.96147E-005	0.00000E+000	-3.50195E-002	0.00000E+000	8	...........	0
	468	46.9	-3.20343E-002	3.97114E-005	0.00000E+000	-3.20194E-002	0.00000E+000	8	...........	0
	471	47.2	-2.90413E-002	3.98247E-005	0.00000E+000	-2.90192E-002	0.00000E+000	8	...........	0
	474	47.5	-2.60383E-002	4.01214E-005	0.00000E+000	-2.60191E-002	0.00000E+000	8	...........	0
	477	47.8	-2.30371E-002	4.00114E-005	0.00000E+000	-2.30190E-002	0.00000E+000	8	...........	0
	480	48.1	-2.00231E-002	4.01414E-005	0.00000E+000	-2.00189E-002	0.00000E+000	8	...........	0
	483	48.4	-1.70071E-002	3.99914E-005	0.00000E+000	-1.70187E-002	0.00000E+000	8	...........	0
	486	48.7	-1.40361E-002	4.03948E-005	0.00000E+000	-1.40186E-002	0.00000E+000	8	...........	0
	489	49	-1.10051E-002	4.12548E-005	0.00000E+000	-1.10185E-002	0.00000E+000	8	...........	0
	492	49.3	-8.02413E-003	4.15315E-005	0.00000E+000	-8.01838E-003	0.00000E+000	8	...........	0
	495	49.6	-5.02215E-003	4.20182E-005	0.00000E+000	-5.01826E-003	0.00000E+000	8	...........	0
	498	49.9	-2.00114E-003	4.24849E-005	0.00000E+000	-2.01814E-003	0.00000E+000	8	...........	0
	501	50.2	9.80829E-004	4.40317E-005	0.00000E+000	9.81987E-004	0.00000E+000	8	...........	0
	504	50.5	3.97481E-003	2.64805E-005	0.00000E+000	3.98211E-003	0.00000E+000	8	...........	0
	507	50.8	6.94476E-003	3.34109E-005	0.00000E+000	6.98223E-003	0.00000E+000	8	...........	0
	510	51.1	9.96477E-003	3.59178E-005	0.00000E+000	9.98235E-003	0.00000E+000	8	...........	0
	513	51.4	1.29517E-002	3.70112E-005	0.00000E+000	1.29825E-002	0.00000E+000	8	...........	0
	516	51.7	1.59287E-002	3.74679E-005	0.00000E+000	1.59826E-002	0.00000E+000	8	...........	0
	519	52	1.89687E-002	3.79346E-005	0.00000E+000	1.89827E-002	0.00000E+000	8	...........	0
	522	52.3	2.19437E-002	3.81213E-005	0.00000E+000	2.19828E-002	0.00000E+000	8	...........	0
	525	52.6	2.49096E-002	3.87480E-005	0.00000E+000	2.49830E-002	0.00000E+000	8	...........	0
	528	52.9	2.79655E-002	3.90180E-005	0.00000E+000	2.79831E-002	0.00000E+000	8	...........	0
	531	53.2	3.09785E-002	3.88613E-005	0.00000E+000	3.09832E-002	0.00000E+000	8	...........	0
	534	53.5	3.39714E-002	3.91480E-005	0.00000E+000	3.39833E-002	0.00000E+000	8	...........	0
	537	53.8	3.69944E-002	3.93080E-005	0.00000E+000	3.69835E-002	0.00000E+000	8	...........	0
	540	54.1	3.99574E-002	3.93747E-005	0.00000E+000	3.99836E-002	0.00000E+000	8	...........	0
	543	54.4	4.29604E-002	3.97681E-005	0.00000E+000	4.29837E-002	0.00000E+000	8	...........	0
	546	54.7	4.59634E-002	3.98581E-005	0.00000E+000	4.59838E-002	0.00000E+000	8	...........	0
	549	55	4.89563E-002	4.02281E-005	0.00000E+000	4.89840E-002	0.00000E+000	8	...........	0
	552	55.3	5.19693E-002	7.19683E-005	0.00000E+000	5.19841E-002	0.00000E+000	9	...........	0
	555	55.6	5.49623E-002	6.13929E-005	0.00000E+000	5.49842E-002	0.00000E+000	8	...........	0
	558	55.9	5.79753E-002	5.90294E-005	0.00000E+000	5.79843E-002	0.00000E+000	8	...........	0
	561	56.2	6.09683E-002	5.86960E-005	0.00000E+000	6.09844E-002	0.00000E+000	8	...........	0
	564	56.5	6.39713E-002	5.91961E-005	0.00000E+000	6.39846E-002	0.00000E+000	8	...........	0
	567	56.8	6.69543E-002	5.93161E-005	0.00000E+000	6.69847E-002	0.00000E+000	8	...........	0
	570	57.1	6.99673E-002	6.04195E-005	0.00000E+000	6.99848E-002	0.00000E+000	8	...........	0
	573	57.4	7.29602E-002	6.17596E-005	0.00000E+000	7.29849E-002	0.00000E+000	8	...........	0
	576	57.7	7.59532E-002	6.28330E-005	0.00000E+000	7.59851E-002	0.00000E+000	8	...........	0
	579	58	7.89562E-002	6.26530E-005	0.00000E+000	7.89852E-002	0.00000E+000	8	...........	0
	582	58.3	8.19692E-002	6.44664E-005	0.00000E+000	8.19853E-002	0.00000E+000	8	...........	0
	585	58.6	8.49622E-002	6.53865E-005	0.00000E+000	8.49854E-002	0.00000E+000	8	...........	0
	588	58.9	8.79652E-002	6.66633E-005	0.00000E+000	8.79855E-002	0.00000E+000	8	...........	0
	591	59.2	9.09582E-002	6.74466E-005	0.00000E+000	9.09857E-002	0.00000E+000	8	...........	0
	594	59.5	9.39711E-002	6.88534E-005	0.00000E+000	9.39858E-002	0.00000E+000	8	...........	0
	597	59.8	9.69541E-002	7.11202E-005	0.00000E+000	9.69859E-002	0.00000E+000	8	...........	0
	600	60.1	9.99571E-002	2.36703E-005	0.00000E+000	9.99860E-002	0.00000E+000	8	...........	0
	603	60.4	1.02920E-001	3.17408E-005	0.00000E+000	1.02986E-001	0.00000E+000	8	...........	0
	606	60.7	1.05983E-001	3.59878E-005	0.00000E+000	1.05986E-001	0.00000E+000	8	...........	0
	609	61	1.08946E-001	3.85213E-005	0.00000E+000	1.08986E-001	0.00000E+000	8	...........	0
	612	61.3	1.11959E-001	4.03014E-005	0.00000E+000	1.11987E-001	0.00000E+000	8	...........	0
	615	61.6	1.14952E-001	4.18549E-005	0.00000E+000	1.14987E-001	0.00000E+000	8	...........	0
	618	61.9	1.17975E-001	4.28549E-005	0.00000E+000	1.17987E-001	0.00000E+000	8	...........	0
	621	62.2	1.20958E-001	4.38517E-005	0.00000E+000	1.20987E-001	0.00000E+000	8	...........	0
	624	62.5	1.23941E-001	4.43650E-005	0.00000E+000	1.23987E-001	0.00000E+000	8	...........	0
	627	62.8	1.26954E-001	4.48817E-005	0.00000E+000	1.26987E-001	0.00000E+000	8	...........	0
	630	63.1	1.29947E-001	4.55685E-005	0.00000E+000	1.29987E-001	0.00000E+000	8	...........	0
	633	63.4	1.32950E-001	4.59051E-005	0.00000E+000	1.32987E-001	0.00000E+000	8	...........	0
	636	63.7	1.36003E-001	4.63652E-005	0.00000E+000	1.35988E-001	0.00000E+000	8	...........	0
	639	64	1.38926E-001	4.67819E-005	0.00000E+000	1.38988E-001	0.00000E+000	8	...........	0
	642	64.3	1.41939E-001	4.71452E-005	0.00000E+000	1.41988E-001	0.00000E+000	8	...........	0
	645	64.6	1.44942E-001	4.75753E-005	0.00000E+000	1.44988E-001	0.00000E+000	8	...........	0
	648	64.9	1.47985E-001	4.80420E-005	0.00000E+000	1.47988E-001	0.00000E+000	8	...........	0
	651	65.2	1.50948E-001	1.09243E-004	0.00000E+000	1.50988E-001	0.00000E+000	8	....ih..i..	0
	654	65.5	1.53961E-001	1.01966E-004	0.00000E+000	1.53988E-001	0.00000E+000	9	...........	0
	657	65.8	1.56954E-001	9.86037E-005	0.00000E+000	1.56988E-001	0.00000E+000	9	...........	0
	660	66.1	1.59957E-001	9.86370E-005	0.00000E+000	1.59988E-001	0.00000E+000	9	...........	0
	663	66.4	1.62970E-001	9.86703E-005	0.00000E+000	1.62989E-001	0.00000E+000	9	...........	0
	666	66.7	1.65963E-001	9.98356E-005	0.00000E+000	1.65989E-001	0.00000E+000	9	...........	0
	669	67	1.68936E-001	1.00701E-004	0.00000E+000	1.68989E-001	0.00000E+000	9	...........	0
	672	67.3	1.71949E-001	1.02000E-004	0.00000E+000	1.71989E-001	0.00000E+000	9	...........	0
	675	67.6	1.74972E-001	1.02999E-004	0.00000E+000	1.74989E-001	0.00000E+000	9	...........	0
	678	67.9	1.77945E-001	1.05163E-004	0.00000E+000	1.77989E-001	0.00000E+000	9	...........	0
	681	68.2	1.80968E-001	1.05629E-004	0.00000E+000	1.80989E-001	0.00000E+000	9	...........	0
	684	68.5	1.83931E-001	1.08093E-004	0.00000E+000	1.83989E-001	0.00000E+000	9	...........	0
	687	68.8	1.86944E-001	1.09258E-004	0.00000E+000	1.86990E-001	0.00000E+000	9	...........	0
	690	69.1	1.89947E-001	1.10556E-004	0.00000E+000	1.89990E-001	0.00000E+000	9	...........	0
	693	69.4	1.92930E-001	1.12820E-004	0.00000E+000	1.92990E-001	0.00000E+000	9	...........	0
	696	69.7	1.95933E-001	1.14984E-004	0.00000E+000	1.95990E-001	0.00000E+000	9	...........	0
	699	70	1.98946E-001	1.15617E-004	0.00000E+000	1.98990E-001	0.00000E+000	9	...........	0
	702	70.3	2.01939E-001	1.16749E-004	0.00000E+000	2.01990E-001	0.00000E+000	9	...........	0
	705	70.6	2.04982E-001	4.97154E-005	0.00000E+000	2.04990E-001	0.00000E+000	8	...........	0
	708	70.9	2.07945E-001	5.15922E-005	0.00000E+000	2.07990E-001	0.00000E+000	8	...........	0
	711	71.2	2.10928E-001	5.28223E-005	0.00000E+000	2.10991E-001	0.00000E+000	8	...........	0
	714	71.5	2.13951E-001	5.42224E-005	0.00000E+000	2.13991E-001	0.00000E+000	8	...........	0
	717	71.8	2.16914E-001	5.52125E-005	0.00000E+000	2.16991E-001	0.00000E+000	8	...........	0
	720	72.1	2.19947E-001	5.61425E-005	0.00000E+000	2.19991E-001	0.00000E+000	8	...........	0
	723	72.4	2.22930E-001	5.71159E-005	0.00000E+000	2.22991E-001	0.00000E+000	8	...........	0
	726	72.7	2.25943E-001	5.77293E-005	0.00000E+000	2.25991E-001	0.00000E+000	8	...........	0
	729	73	2.28915E-001	5.84360E-005	0.00000E+000	2.28991E-001	0.00000E+000	8	...........	0
	732	73.3	2.31918E-001	5.92027E-005	0.00000E+000	2.31991E-001	0.00000E+000	8	...........	0
	735	73.6	2.34951E-001	6.00828E-005	0.00000E+000	2.34992E-001	0.00000E+000	8	...........	0
	738	73.9	2.37954E-001	6.08195E-005	0.00000E+000	2.37992E-001	0.00000E+000	8	...........	0
	741	74.2	2.40897E-001	6.13096E-005	0.00000E+000	2.40992E-001	0.00000E+000	8	...........	0
	744	74.5	2.43940E-001	6.20863E-005	0.00000E+000	2.43992E-001	0.00000E+000	8	...........	0
	747	74.8	2.46903E-001	6.27797E-005	0.00000E+000	2.46992E-001	0.00000E+000	8	...........	0
	750	75.1	2.49966E-001	6.35397E-005	0.00000E+000	2.49992E-001	0.00000E+000	8	...........	0
	753	75.4	2.52949E-001	1.49011E-004	0.00000E+000	2.52992E-001	0.00000E+000	9	...........	0
	756	75.7	2.55912E-001	1.46148E-004	0.00000E+000	2.55992E-001	0.00000E+000	9	...........	0
	759	76	2.58925E-001	1.46248E-004	0.00000E+000	2.58993E-001	0.00000E+000	9	...........	0
	762	76.3	2.61878E-001	1.47413E-004	0.00000E+000	2.61993E-001	0.00000E+000	9	...........	0
	765	76.6	2.64911E-001	1.48878E-004	0.00000E+000	2.64993E-001	0.00000E+000	9	...........	0
	768	76.9	2.68055E-001	1.49111E-004	0.00000E+000	2.67993E-001	0.00000E+000	9	...........	0
	771	77.2	2.71158E-001	1.48778E-004	0.00000E+000	2.70993E-001	0.00000E+000	9	...........	0
	774	77.5	2.74161E-001	1.49943E-004	0.00000E+000	2.73993E-001	0.00000E+000	9	...........	0
	777	77.8	2.77064E-001	1.52773E-004	0.00000E+000	2.76993E-001	0.00000E+000	9	...........	0
	780	78.1	2.80167E-001	1.54505E-004	0.00000E+000	2.79993E-001	0.00000E+000	9	...........	0
	783	78.4	2.83170E-001	1.56103E-004	0.00000E+000	2.82993E-001	0.00000E+000	9	...........	0
	786	78.7	2.86073E-001	1.57435E-004	0.00000E+000	2.85994E-001	0.00000E+000	9	...........	0
	789	79	2.89076E-001	1.58800E-004	0.00000E+000	2.88994E-001	0.00000E+000	9	...........	0
	792	79.3	2.92079E-001	1.59532E-004	0.00000E+000	2.91994E-001	0.00000E+000	9	...........	0
	795	79.6	2.95182E-001	1.59033E-004	0.00000E+000	2.94994E-001	0.00000E+000	9	...........	0
	798	79.9	2.98085E-001	1.59566E-004	0.00000E+000	2.97994E-001	0.00000E+000	9	...........	0
	801	80.2	3.01188E-001	7.58970E-005	0.00000E+000	3.00994E-001	0.00000E+000	9	...........	0
	804	80.5	3.04191E-001	7.51339E-005	0.00000E+000	3.03994E-001	0.00000E+000	8	...........	0
	807	80.8	3.07194E-001	7.62573E-005	0.00000E+000	3.06994E-001	0.00000E+000	8	...........	0
	810	81.1	3.10097E-001	7.72673E-005	0.00000E+000	3.09995E-001	0.00000E+000	8	...........	0
	813	81.4	3.13200E-001	7.80374E-005	0.00000E+000	3.12995E-001	0.00000E+000	8	...........	0
	816	81.7	3.16103E-001	7.91108E-005	0.00000E+000	3.15995E-001	0.00000E+000	8	...........	0
	819	82	3.19106E-001	7.98942E-005	0.00000E+000	3.18995E-001	0.00000E+000	8	...........	0
	822	82.3	3.22209E-001	8.09376E-005	0.00000E+000	3.21995E-001	0.00000E+000	8	...........	0
	825	82.6	3.25112E-001	8.21010E-005	0.00000E+000	3.24995E-001	0.00000E+000	8	...........	0
	828	82.9	3.28115E-001	8.30411E-005	0.00000E+000	3.27995E-001	0.00000E+000	8	...........	0
	831	83.2	3.31118E-001	8.39478E-005	0.00000E+000	3.30995E-001	0.00000E+000	8	...........	0
	834	83.5	3.34121E-001	8.50312E-005	0.00000E+000	3.33996E-001	0.00000E+000	8	...........	0
	837	83.8	3.37124E-001	8.62213E-005	0.00000E+000	3.36996E-001	0.00000E+000	8	...........	0
	840	84.1	3.40127E-001	8.72447E-005	0.00000E+000	3.39996E-001	0.00000E+000	8	...........	0
	843	84.4	3.43030E-001	8.84148E-005	0.00000E+000	3.42996E-001	0.00000E+000	8	...........	0
	846	84.7	3.46233E-001	8.95810E-005	0.00000E+000	3.45996E-001	0.00000E+000	9	...........	0
	849	85	3.49236E-001	9.08794E-005	0.00000E+000	3.48996E-001	0.00000E+000	9	...........	0
	852	85.3	3.52139E-001	1.93559E-004	0.00000E+000	3.51996E-001	0.00000E+000	9	...........	0
	855	85.6	3.55042E-001	1.93060E-004	0.00000E+000	3.54996E-001	0.00000E+000	9	...........	0
	858	85.9	3.58245E-001	1.94192E-004	0.00000E+000	3.57997E-001	0.00000E+000	9	...........	0
	861	86.2	3.61148E-001	1.95690E-004	0.00000E+000	3.60997E-001	0.00000E+000	9	...........	0
	864	86.5	3.64151E-001	1.99818E-004	0.00000E+000	3.63997E-001	0.00000E+000	9	...........	0
	867	86.8	3.67154E-001	2.03814E-004	0.00000E+000	3.66997E-001	0.00000E+000	9	...........	0
	870	87.1	3.70157E-001	2.07176E-004	0.00000E+000	3.69997E-001	0.00000E+000	9	...........	0
	873	87.4	3.73059E-001	2.09074E-004	0.00000E+000	3.72997E-001	0.00000E+000	9	...........	0
	876	87.7	3.76162E-001	2.14734E-004	0.00000E+000	3.75997E-001	0.00000E+000	9	...........	0
	879	88	3.79166E-001	2.16832E-004	0.00000E+000	3.78997E-001	0.00000E+000	9	...........	0
	882	88.3	3.82068E-001	2.21460E-004	0.00000E+000	3.81998E-001	0.00000E+000	9	...........	0
	885	88.6	3.85272E-001	2.27253E-004	0.00000E+000	3.84998E-001	0.00000E+000	9	...........	0
	888	88.9	3.88174E-001	2.31881E-004	0.00000E+000	3.87998E-001	0.00000E+000	9	...........	0
	891	89.2	3.91177E-001	2.37108E-004	0.00000E+000	3.90998E-001	0.00000E+000	9	...........	0
	894	89.5	3.94180E-001	2.44499E-004	0.00000E+000	3.93998E-001	0.00000E+000	9	...........	0
	897	89.8	3.97183E-001	2.52889E-004	0.00000E+000	3.96998E-001	0.00000E+000	9	...........	0
	900	90.1	4.00186E-001	2.63310E-004	0.00000E+000	3.99998E-001	0.00000E+000	9	...........	0
	903	90.4	4.03089E-001	1.67756E-004	0.00000E+000	4.02998E-001	0.00000E+000	9	...........	0
	906	90.7	4.06092E-001	1.76479E-004	0.00000E+000	4.05999E-001	0.00000E+000	9	...........	0
	909	91	4.09095E-001	1.86001E-004	0.00000E+000	4.08999E-001	0.00000E+000	9	...........	0
	912	91.3	4.12198E-001	1.95856E-004	0.00000E+000	4.11999E-001	0.00000E+000	9	...........	0
	915	91.6	4.15301E-001	2.06211E-004	0.00000E+000	4.14999E-001	0.00000E+000	9	...........	0
	918	91.9	4.18204E-001	2.16699E-004	0.00000E+000	4.17999E-001	0.00000E+000	9	...........	0
	921	92.2	4.21207E-001	2.27253E-004	0.00000E+000	4.20999E-001	0.00000E+000	9	...........	0
	924	92.5	4.24110E-001	2.38073E-004	0.00000E+000	4.23999E-001	0.00000E+000	9	...........	0
	927	92.8	4.27113E-001	2.48894E-004	0.00000E+000	4.26999E-001	0.00000E+000	9	...........	0
	930	93.1	4.30116E-001	2.59648E-004	0.00000E+000	4.30000E-001	0.00000E+000	9	...........	0
	933	93.4	4.33219E-001	2.70602E-004	0.00000E+000	4.33000E-001	0.00000E+000	9	...........	0
	936	93.7	4.36222E-001	2.81389E-004	0.00000E+000	4.36000E-001	0.00000E+000	9	...........	0
	939	94	4.39225E-001	2.92942E-004	0.00000E+000	4.39000E-001	0.00000E+000	9	...........	0
	942	94.3	4.42228E-001	3.04495E-004	0.00000E+000	4.42000E-001	0.00000E+000	9	...........	0
	945	94.6	4.45231E-001	3.16548E-004	0.00000E+000	4.45000E-001	0.00000E+000	9	...........	0
	948	94.9	4.48134E-001	3.29300E-004	0.00000E+000	4.48000E-001	0.00000E+000	9	...........	0
	951	95.2	4.51237E-001	3.42151E-004	0.00000E+000	4.51000E-001	0.00000E+000	9	...........	0
	954	95.5	4.54140E-001	4.51789E-004	0.00000E+000	4.54001E-001	0.00000E+000	9	...........	0
	957	95.8	4.57143E-001	4.86449E-004	0.00000E+000	4.57001E-001	0.00000E+000	9	...........	0
	960	96.1	4.60146E-001	5.00432E-004	0.00000E+000	4.60001E-001	0.00000E+000	9	...........	0
	963	96.4	4.63249E-001	5.17978E-004	0.00000E+000	4.63001E-001	0.00000E+000	9	...........	0
	966	96.7	4.66152E-001	5.34625E-004	0.00000E+000	4.66001E-001	0.00000E+000	9	...........	0
	969	97	4.69155E-001	5.51639E-004	0.00000E+000	4.69001E-001	0.00000E+000	9	...........	0
	972	97.3	4.72258E-001	5.69618E-004	0.00000E+000	4.72001E-001	0.00000E+000	9	...........	0
	975	97.6	4.75261E-001	5.85299E-004	0.00000E+000	4.75001E-001	0.00000E+000	9	...........	0
	978	97.9	4.78264E-001	6.02746E-004	0.00000E+000	4.78001E-001	0.00000E+000	9	...........	0
	981	98.2	4.81167E-001	6.19359E-004	0.00000E+000	4.81002E-001	0.00000E+000	9	...........	0
	984	98.5	4.84070E-001	6.39103E-004	0.00000E+000	4.84002E-001	0.00000E+000	9	...........	0
	987	98.8	4.87173E-001	6.57115E-004	0.00000E+000	4.87002E-001	0.00000E+000	9	...........	0
	990	99.1	4.90076E-001	6.76925E-004	0.00000E+000	4.90002E-001	0.00000E+000	9	...........	0
	993	99.4	4.93179E-001	6.96302E-004	0.00000E+000	4.93002E-001	0.00000E+000	9	...........	0
	996	99.7	4.96082E-001	7.14348E-004	0.00000E+000	4.96002E-001	0.00000E+000	9	...........	0
	999	100	4.99185E-001	7.32993E-004	0.00000E+000	4.99002E-001	0.00000E+000	9	...........	0
	1002	100.3	5.02188E-001	6.37438E-004	0.00000E+000	5.02002E-001	0.00000E+000	9	...........	0
	1005	100.6	5.05091E-001	6.54984E-004	0.00000E+000	5.05003E-001	0.00000E+000	9	...........	0
	1008	100.9	5.08094E-001	6.73396E-004	0.00000E+000	5.08003E-001	0.00000E+000	9	...........	0
	1011	101.2	5.11197E-001	6.91608E-004	0.00000E+000	5.11003E-001	0.00000E+000	9	...........	0
	1014	101.5	5.14200E-001	7.10086E-004	0.00000E+000	5.14003E-001	0.00000E+000	9	...........	0
	1017	101.8	5.17203E-001	7.28398E-004	0.00000E+000	5.17003E-001	0.00000E+000	9	...........	0
	1020	102.1	5.20206E-001	7.46577E-004	0.00000E+000	5.20003E-001	0.00000E+000	9	...........	0
	1023	102.4	5.23209E-001	7.63956E-004	0.00000E+000	5.23003E-001	0.00000E+000	9	...........	0
	1026	102.7	5.26212E-001	7.80903E-004	0.00000E+000	5.26003E-001	0.00000E+000	9	...........	0
	1029	103	5.29115E-001	7.97650E-004	0.00000E+000	5.29004E-001	0.00000E+000	9	...........	0
	1032	103.3	5.32218E-001	8.13598E-004	0.00000E+000	5.32004E-001	0.00000E+000	9	...........	0
	1035	103.6	5.35221E-001	8.29180E-004	0.00000E+000	5.35004E-001	0.00000E+000	9	...........	0
	1038	103.9	5.38224E-001	8.44662E-004	0.00000E+000	5.38004E-001	0.00000E+000	9	...........	0
	1041	104.2	5.41227E-001	8.59877E-004	0.00000E+000	5.41004E-001	0.00000E+000	9	...........	0
	1044	104.5	5.44130E-001	8.73495E-004	0.00000E+000	5.44004E-001	0.00000E+000	9	...........	0
	1047	104.8	5.47233E-001	8.87578E-004	0.00000E+000	5.47004E-001	0.00000E+000	9	...........	0
	1050	105.1	5.50236E-001	1.03359E-003	0.00000E+000	5.50004E-001	0.00000E+000	10	...........	0
	1053	105.4	5.53239E-001	1.04853E-003	0.00000E+000	5.53005E-001	0.00000E+000	10	...........	0
	1056	105.7	5.56242E-001	1.06412E-003	0.00000E+000	5.56005E-001	0.00000E+000	10	...........	0
	1059	106	5.59245E-001	1.07939E-003	0.00000E+000	5.59005E-001	0.00000E+000	10	...........	0
	1062	106.3	5.62148E-001	1.09399E-003	0.00000E+000	5.62005E-001	0.00000E+000	10	...........	0
	1065	106.6	5.65251E-001	1.11656E-003	0.00000E+000	5.65005E-001	0.00000E+000	10	...........	0
	1068	106.9	5.68254E-001	1.13780E-003	0.00000E+000	5.68005E-001	0.00000E+000	10	...........	0
	1071	107.2	5.71257E-001	1.16335E-003	0.00000E+000	5.71005E-001	0.00000E+000	10	...........	0
	1074	107.5	5.74260E-001	1.19023E-003	0.00000E+000	5.74005E-001	0.00000E+000	10	...........	0
	1077	107.8	5.77163E-001	1.21412E-003	0.00000E+000	5.77006E-001	0.00000E+000	10	...........	0
	1080	108.1	5.80266E-001	1.24499E-003	0.00000E+000	5.80006E-001	0.00000E+000	10	...........	0
	1083	108.4	5.83269E-001	1.27519E-003	0.00000E+000	5.83006E-001	0.00000E+000	10	...........	0
	1086	108.7	5.86172E-001	1.30439E-003	0.00000E+000	5.86006E-001	0.00000E+000	10	...........	0
	1089	109	5.89275E-001	1.33558E-003	0.00000E+000	5.89006E-001	0.00000E+000	10	...........	0
	1092	109.3	5.92278E-001	1.36877E-003	0.00000E+000	5.92006E-001	0.00000E+000	10	...........	0
	1095	109.6	5.95281E-001	1.40195E-003	0.00000E+000	5.95006E-001	0.00000E+000	10	...........	0
	1098	109.9	5.98284E-001	1.43713E-003	0.00000E+000	5.98006E-001	0.00000E+000	10	...........	0
	1100	110.1	6.00286E-001	1.45406E-003	0.00000E+000	6.00006E-001	0.00000E+000	10	...........	0