File: LSV ZFO/ZFO_h300_light.DTA
EXPLAIN
TAG	LSV
TITLE	LABEL	Linear Sweep Voltammetry	Test &Identifier
DATE	LABEL	7/5/2024	Date
TIME	LABEL	16:40:51	Time
NOTES	NOTES	1	&Notes...

PSTAT	PSTAT	L3FNano	Potentiostat
VINIT	POTEN	-5.00000E-001	F	&Initial E (V)
VFINAL	POTEN	6.00000E-001	F	&Final E (V)
SCANRATE	QUANT	9.99998E+000	&Scan Rate (mV/s)
STEPSIZE	QUANT	1.00000E+000	St&ep Size (mV)
IMODE	SELECTOR	0	I/E Range &Mode
IRANGE	QUANT	1.00000E+001	&Max Current (mA)
AREA	QUANT	1.00000E+000	Electrode &Area (cm^2)
ELECTRODETYPE	SELECTOR	0	Electrode Type
STRIPPING	TOGGLE	F	Used for Stripping
POLARITY	TOGGLE	F	Signal Polarity
CONDIT	TWOPARAM	F	1.50000E+001	0.00000E+000	Conditionin&g	Time(s)	E(V)
DELAY	TWOPARAM	F	3.00000E+001	0.00000E+000	Init. De&lay	Time(s)	Stab.(mV/s)
EQDELAY	QUANT	5.00000E+000	Equil. &Time (s)
IRCOMP	SELECTOR	0	IRCom&p
PFCOR	QUANT	5.00000E+001	PF Corr. (ohm)
SAMPLINGMODE	SELECTOR	0	Sampling &Mode
EOC	QUANT	0	Open Circuit (V)
PSTATMODEL	IQUANT	48	Pstat Model
PSTATSECTION	LABEL	IFC1000-07082	Pstat Section
PSTATSERIALNO	LABEL	07082	Pstat Serial Number
CTRLMODE	IQUANT	1	Control Mode
IESTAB	IQUANT	2	I/E Stability
CASPEED	IQUANT	2	Control Amp Speed
CONVENTION	IQUANT	1	Current Convention
ICHRANGE	IQUANT	2	Ich Range
ICHRANGEMODE	TOGGLE	F	Ich Auto Range
ICHOFFSETENABLE	TOGGLE	F	Ich Offset Enable
ICHOFFSET	QUANT	0	Ich Offset (V)
ICHFILTER	IQUANT	3	Ich Filter
VCHRANGE	IQUANT	2	Vch Range
VCHRANGEMODE	TOGGLE	T	Vch Auto Range
VCHOFFSETENABLE	TOGGLE	F	Vch Offset Enable
VCHOFFSET	QUANT	0	Vch Offset (V)
VCHFILTER	IQUANT	3	Vch Filter
IERANGELOWERLIMIT	IQUANT	4	I/E Range Lower Limit
IERANGEMODE	TOGGLE	T	I/E AutoRange
IERANGE	IQUANT	11	I/E Range
ACHSELECT	IQUANT	4	Ach Select
CABLEID	IQUANT	14	Cable ID
DCCALDATE	LABEL	7/3/2024	DC Calibration Date
ACCALDATE	LABEL	7/3/2024	AC Calibration Date
FRAMEWORKVERSION	QUANT	6.24	Framework Version
INSTRUMENTVERSION	LABEL	3.28	Instrument Version
CURVE	TABLE	1101
	Pt	T	Vf	Im	Vu	Sig	Ach	IERange	Over	Cycle
	#	s	V vs. Ref.	A	V	V	V	#	bits	#
	0	0.1	-5.00010E-001	-1.13719E-005	0.00000E+000	-4.99988E-001	0.00000E+000	11	...........	0
	3	0.4	-4.97107E-001	-1.79226E-005	0.00000E+000	-4.96988E-001	0.00000E+000	8	...........	0
	6	0.7	-4.94104E-001	-1.69026E-005	0.00000E+000	-4.93988E-001	0.00000E+000	8	...........	0
	9	1	-4.91001E-001	-1.60225E-005	0.00000E+000	-4.90988E-001	0.00000E+000	8	...........	0
	12	1.3	-4.88098E-001	-1.51258E-005	0.00000E+000	-4.87988E-001	0.00000E+000	8	...........	0
	15	1.6	-4.85095E-001	-1.43857E-005	0.00000E+000	-4.84988E-001	0.00000E+000	8	...........	0
	18	1.9	-4.81992E-001	-1.36923E-005	0.00000E+000	-4.81988E-001	0.00000E+000	8	...........	0
	21	2.2	-4.79089E-001	-1.30423E-005	0.00000E+000	-4.78988E-001	0.00000E+000	8	...........	0
	24	2.5	-4.76086E-001	-1.24156E-005	0.00000E+000	-4.75987E-001	0.00000E+000	8	...........	0
	27	2.8	-4.73083E-001	-1.17622E-005	0.00000E+000	-4.72987E-001	0.00000E+000	8	...........	0
	30	3.1	-4.70080E-001	-1.12355E-005	0.00000E+000	-4.69987E-001	0.00000E+000	8	...........	0
	33	3.4	-4.67177E-001	-1.06188E-005	0.00000E+000	-4.66987E-001	0.00000E+000	8	...........	0
	36	3.7	-4.64074E-001	-1.01954E-005	0.00000E+000	-4.63987E-001	0.00000E+000	8	...........	0
	39	4	-4.61071E-001	-9.65540E-006	0.00000E+000	-4.60987E-001	0.00000E+000	8	...........	0
	42	4.3	-4.58068E-001	-9.19870E-006	0.00000E+000	-4.57987E-001	0.00000E+000	8	...........	0
	45	4.6	-4.55065E-001	-8.80534E-006	0.00000E+000	-4.54987E-001	0.00000E+000	8	...........	0
	48	4.9	-4.51962E-001	-8.44198E-006	0.00000E+000	-4.51987E-001	0.00000E+000	8	...........	0
	51	5.2	-4.49059E-001	-7.98233E-006	0.00000E+000	-4.48986E-001	0.00000E+000	7	...........	0
	54	5.5	-4.46056E-001	-7.53888E-006	0.00000E+000	-4.45986E-001	0.00000E+000	7	...........	0
	57	5.8	-4.42953E-001	-7.15277E-006	0.00000E+000	-4.42986E-001	0.00000E+000	7	...........	0
	60	6.1	-4.40050E-001	-6.77967E-006	0.00000E+000	-4.39986E-001	0.00000E+000	7	...........	0
	63	6.4	-4.37047E-001	-6.41624E-006	0.00000E+000	-4.36986E-001	0.00000E+000	7	...........	0
	66	6.7	-4.34044E-001	-6.04913E-006	0.00000E+000	-4.33986E-001	0.00000E+000	7	...........	0
	69	7	-4.31041E-001	-5.63302E-006	0.00000E+000	-4.30986E-001	0.00000E+000	7	...........	0
	72	7.3	-4.27938E-001	-5.33027E-006	0.00000E+000	-4.27986E-001	0.00000E+000	7	...........	0
	75	7.6	-4.24935E-001	-5.08720E-006	0.00000E+000	-4.24985E-001	0.00000E+000	7	...........	0
	78	7.9	-4.21932E-001	-4.80379E-006	0.00000E+000	-4.21985E-001	0.00000E+000	7	...........	0
	81	8.2	-4.19029E-001	-4.56673E-006	0.00000E+000	-4.18985E-001	0.00000E+000	7	...........	0
	84	8.5	-4.16026E-001	-4.28465E-006	0.00000E+000	-4.15985E-001	0.00000E+000	7	...........	0
	87	8.8	-4.12923E-001	-3.97723E-006	0.00000E+000	-4.12985E-001	0.00000E+000	7	...........	0
	90	9.1	-4.09920E-001	-3.74650E-006	0.00000E+000	-4.09985E-001	0.00000E+000	7	...........	0
	93	9.4	-4.06917E-001	-3.46376E-006	0.00000E+000	-4.06985E-001	0.00000E+000	7	...........	0
	96	9.7	-4.04014E-001	-3.24236E-006	0.00000E+000	-4.03985E-001	0.00000E+000	7	...........	0
	99	10	-4.00911E-001	-2.99229E-006	0.00000E+000	-4.00984E-001	0.00000E+000	7	...........	0
	102	10.3	-3.98008E-001	-2.81358E-006	0.00000E+000	-3.97984E-001	0.00000E+000	7	...........	0
	105	10.6	-3.94905E-001	-2.60619E-006	0.00000E+000	-3.94984E-001	0.00000E+000	7	...........	0
	108	10.9	-3.91902E-001	-2.40813E-006	0.00000E+000	-3.91984E-001	0.00000E+000	7	...........	0
	111	11.2	-3.88999E-001	-2.24509E-006	0.00000E+000	-3.88984E-001	0.00000E+000	7	...........	0
	114	11.5	-3.85996E-001	-2.01436E-006	0.00000E+000	-3.85984E-001	0.00000E+000	7	...........	0
	117	11.8	-3.82993E-001	-1.87265E-006	0.00000E+000	-3.82984E-001	0.00000E+000	7	...........	0
	120	12.1	-3.79990E-001	-1.77329E-006	0.00000E+000	-3.79984E-001	0.00000E+000	7	...........	0
	123	12.4	-3.76987E-001	-1.59624E-006	0.00000E+000	-3.76983E-001	0.00000E+000	7	...........	0
	126	12.7	-3.73984E-001	-1.47654E-006	0.00000E+000	-3.73983E-001	0.00000E+000	7	...........	0
	129	13	-3.70881E-001	-1.28816E-006	0.00000E+000	-3.70983E-001	0.00000E+000	7	...........	0
	132	13.3	-3.67978E-001	-1.08244E-006	0.00000E+000	-3.67983E-001	0.00000E+000	7	...........	0
	135	13.6	-3.64875E-001	-9.46066E-007	0.00000E+000	-3.64983E-001	0.00000E+000	7	...........	0
	138	13.9	-3.61872E-001	-7.70351E-007	0.00000E+000	-3.61983E-001	0.00000E+000	7	...........	0
	141	14.2	-3.58969E-001	-6.73324E-007	0.00000E+000	-3.58983E-001	0.00000E+000	7	...........	0
	144	14.5	-3.55966E-001	-5.37620E-007	0.00000E+000	-3.55983E-001	0.00000E+000	7	...........	0
	147	14.8	-3.52963E-001	-4.06918E-007	0.00000E+000	-3.52982E-001	0.00000E+000	7	...........	0
	150	15.1	-3.49960E-001	-3.02889E-007	0.00000E+000	-3.49982E-001	0.00000E+000	7	...........	0
	153	15.4	-3.46957E-001	-1.24507E-007	0.00000E+000	-3.46982E-001	0.00000E+000	7	...........	0
	156	15.7	-3.43954E-001	-7.14923E-008	0.00000E+000	-3.43982E-001	0.00000E+000	7	...........	0
	159	16	-3.41051E-001	3.55372E-008	0.00000E+000	-3.40982E-001	0.00000E+000	7	...........	0
	162	16.3	-3.37848E-001	1.13892E-007	0.00000E+000	-3.37982E-001	0.00000E+000	7	...........	0
	165	16.6	-3.35045E-001	1.57904E-007	0.00000E+000	-3.34982E-001	0.00000E+000	7	...........	0
	168	16.9	-3.31942E-001	2.17921E-007	0.00000E+000	-3.31982E-001	0.00000E+000	7	...........	0
	171	17.2	-3.28939E-001	4.34980E-007	0.00000E+000	-3.28982E-001	0.00000E+000	7	...........	0
	174	17.5	-3.25936E-001	4.71657E-007	0.00000E+000	-3.25981E-001	0.00000E+000	7	...........	0
	177	17.8	-3.23033E-001	5.49678E-007	0.00000E+000	-3.22981E-001	0.00000E+000	7	...........	0
	180	18.1	-3.19930E-001	6.75046E-007	0.00000E+000	-3.19981E-001	0.00000E+000	7	...........	0
	183	18.4	-3.16927E-001	6.79714E-007	0.00000E+000	-3.16981E-001	0.00000E+000	7	...........	0
	186	18.7	-3.14024E-001	8.52095E-007	0.00000E+000	-3.13981E-001	0.00000E+000	7	...........	0
	189	19	-3.10921E-001	1.07382E-006	0.00000E+000	-3.10981E-001	0.00000E+000	7	...........	0
	192	19.3	-3.07918E-001	1.21720E-006	0.00000E+000	-3.07981E-001	0.00000E+000	7	...........	0
	195	19.6	-3.05015E-001	1.21019E-006	0.00000E+000	-3.04981E-001	0.00000E+000	7	...........	0
	198	19.9	-3.02013E-001	1.24520E-006	0.00000E+000	-3.01980E-001	0.00000E+000	7	...........	0
	201	20.2	-2.98909E-001	1.32856E-006	0.00000E+000	-2.98980E-001	0.00000E+000	7	...........	0
	204	20.5	-2.95906E-001	1.52795E-006	0.00000E+000	-2.95980E-001	0.00000E+000	7	...........	0
	207	20.8	-2.93004E-001	1.48260E-006	0.00000E+000	-2.92980E-001	0.00000E+000	7	...........	0
	210	21.1	-2.90001E-001	1.66599E-006	0.00000E+000	-2.89980E-001	0.00000E+000	7	...........	0
	213	21.4	-2.86897E-001	1.74701E-006	0.00000E+000	-2.86980E-001	0.00000E+000	7	...........	0
	216	21.7	-2.83894E-001	1.75434E-006	0.00000E+000	-2.83980E-001	0.00000E+000	7	...........	0
	219	22	-2.80891E-001	1.88204E-006	0.00000E+000	-2.80980E-001	0.00000E+000	7	...........	0
	222	22.3	-2.77888E-001	2.03175E-006	0.00000E+000	-2.77979E-001	0.00000E+000	7	...........	0
	225	22.6	-2.74886E-001	1.97140E-006	0.00000E+000	-2.74979E-001	0.00000E+000	7	...........	0
	228	22.9	-2.71883E-001	2.01942E-006	0.00000E+000	-2.71979E-001	0.00000E+000	7	...........	0
	231	23.2	-2.68980E-001	2.00108E-006	0.00000E+000	-2.68979E-001	0.00000E+000	7	...........	0
	234	23.5	-2.65877E-001	2.12344E-006	0.00000E+000	-2.65979E-001	0.00000E+000	7	...........	0
	237	23.8	-2.62874E-001	2.23881E-006	0.00000E+000	-2.62979E-001	0.00000E+000	7	...........	0
	240	24.1	-2.59971E-001	2.37851E-006	0.00000E+000	-2.59979E-001	0.00000E+000	7	...........	0
	243	24.4	-2.56968E-001	2.58157E-006	0.00000E+000	-2.56979E-001	0.00000E+000	7	...........	0
	246	24.7	-2.53764E-001	2.72094E-006	0.00000E+000	-2.53978E-001	0.00000E+000	7	...........	0
	249	25	-2.50862E-001	2.75428E-006	0.00000E+000	-2.50978E-001	0.00000E+000	7	...........	0
	252	25.3	-2.47859E-001	3.03569E-006	0.00000E+000	-2.47978E-001	0.00000E+000	7	...........	0
	255	25.6	-2.44956E-001	3.12639E-006	0.00000E+000	-2.44978E-001	0.00000E+000	7	...........	0
	258	25.9	-2.41893E-001	3.20941E-006	0.00000E+000	-2.41978E-001	0.00000E+000	7	...........	0
	261	26.2	-2.38900E-001	3.03836E-006	0.00000E+000	-2.38978E-001	0.00000E+000	7	...........	0
	264	26.5	-2.35897E-001	3.10071E-006	0.00000E+000	-2.35978E-001	0.00000E+000	7	...........	0
	267	26.8	-2.32914E-001	3.22008E-006	0.00000E+000	-2.32978E-001	0.00000E+000	7	...........	0
	270	27.1	-2.29911E-001	3.23742E-006	0.00000E+000	-2.29977E-001	0.00000E+000	7	...........	0
	273	27.4	-2.26888E-001	3.39313E-006	0.00000E+000	-2.26977E-001	0.00000E+000	7	...........	0
	276	27.7	-2.23915E-001	3.62286E-006	0.00000E+000	-2.23977E-001	0.00000E+000	7	...........	0
	279	28	-2.20892E-001	3.70788E-006	0.00000E+000	-2.20977E-001	0.00000E+000	7	...........	0
	282	28.3	-2.17899E-001	3.73055E-006	0.00000E+000	-2.17977E-001	0.00000E+000	7	...........	0
	285	28.6	-2.14886E-001	3.80757E-006	0.00000E+000	-2.14977E-001	0.00000E+000	7	...........	0
	288	28.9	-2.11913E-001	3.99996E-006	0.00000E+000	-2.11977E-001	0.00000E+000	7	...........	0
	291	29.2	-2.08890E-001	4.10766E-006	0.00000E+000	-2.08977E-001	0.00000E+000	7	...........	0
	294	29.5	-2.05927E-001	4.24269E-006	0.00000E+000	-2.05976E-001	0.00000E+000	7	...........	0
	297	29.8	-2.02914E-001	4.19501E-006	0.00000E+000	-2.02976E-001	0.00000E+000	7	...........	0
	300	30.1	-1.99901E-001	4.36139E-006	0.00000E+000	-1.99976E-001	0.00000E+000	7	...........	0
	303	30.4	-1.96908E-001	4.32505E-006	0.00000E+000	-1.96976E-001	0.00000E+000	7	...........	0
	306	30.7	-1.93905E-001	4.42541E-006	0.00000E+000	-1.93976E-001	0.00000E+000	7	...........	0
	309	31	-1.90902E-001	4.43308E-006	0.00000E+000	-1.90976E-001	0.00000E+000	7	...........	0
	312	31.3	-1.87919E-001	4.58245E-006	0.00000E+000	-1.87976E-001	0.00000E+000	7	...........	0
	315	31.6	-1.84906E-001	4.72649E-006	0.00000E+000	-1.84976E-001	0.00000E+000	7	...........	0
	318	31.9	-1.81923E-001	4.80685E-006	0.00000E+000	-1.81975E-001	0.00000E+000	7	...........	0
	321	32.2	-1.78900E-001	4.89054E-006	0.00000E+000	-1.78975E-001	0.00000E+000	7	...........	0
	324	32.5	-1.75917E-001	4.89821E-006	0.00000E+000	-1.75975E-001	0.00000E+000	7	...........	0
	327	32.8	-1.72894E-001	4.98890E-006	0.00000E+000	-1.72975E-001	0.00000E+000	7	...........	0
	330	33.1	-1.69891E-001	5.00924E-006	0.00000E+000	-1.69975E-001	0.00000E+000	7	...........	0
	333	33.4	-1.66989E-001	5.18262E-006	0.00000E+000	-1.67025E-001	0.00000E+000	7	...........	0
	336	33.7	-1.63956E-001	5.24664E-006	0.00000E+000	-1.64025E-001	0.00000E+000	7	...........	0
	339	34	-1.60973E-001	5.47336E-006	0.00000E+000	-1.61025E-001	0.00000E+000	7	...........	0
	342	34.3	-1.57980E-001	5.68009E-006	0.00000E+000	-1.58025E-001	0.00000E+000	7	...........	0
	345	34.6	-1.54977E-001	5.59740E-006	0.00000E+000	-1.55024E-001	0.00000E+000	7	...........	0
	348	34.9	-1.52004E-001	5.66342E-006	0.00000E+000	-1.52024E-001	0.00000E+000	7	...........	0
	351	35.2	-1.48991E-001	5.68009E-006	0.00000E+000	-1.49024E-001	0.00000E+000	7	...........	0
	354	35.5	-1.45978E-001	5.88348E-006	0.00000E+000	-1.46024E-001	0.00000E+000	7	...........	0
	357	35.8	-1.42985E-001	5.80712E-006	0.00000E+000	-1.43024E-001	0.00000E+000	7	...........	0
	360	36.1	-1.39992E-001	5.86347E-006	0.00000E+000	-1.40024E-001	0.00000E+000	7	...........	0
	363	36.4	-1.36989E-001	5.93149E-006	0.00000E+000	-1.37024E-001	0.00000E+000	7	...........	0
	366	36.7	-1.33986E-001	6.03452E-006	0.00000E+000	-1.34024E-001	0.00000E+000	7	...........	0
	369	37	-1.30993E-001	6.08453E-006	0.00000E+000	-1.31023E-001	0.00000E+000	7	...........	0
	372	37.3	-1.27990E-001	6.19056E-006	0.00000E+000	-1.28023E-001	0.00000E+000	7	...........	0
	375	37.6	-1.24997E-001	6.30259E-006	0.00000E+000	-1.25023E-001	0.00000E+000	7	...........	0
	378	37.9	-1.21984E-001	6.49398E-006	0.00000E+000	-1.22023E-001	0.00000E+000	7	...........	0
	381	38.2	-1.18991E-001	6.87475E-006	0.00000E+000	-1.19023E-001	0.00000E+000	7	...........	0
	384	38.5	-1.15988E-001	6.99545E-006	0.00000E+000	-1.16023E-001	0.00000E+000	7	...........	0
	387	38.8	-1.12995E-001	7.03613E-006	0.00000E+000	-1.13023E-001	0.00000E+000	7	...........	0
	390	39.1	-1.10012E-001	7.13015E-006	0.00000E+000	-1.10023E-001	0.00000E+000	7	...........	0
	393	39.4	-1.06989E-001	7.15183E-006	0.00000E+000	-1.07022E-001	0.00000E+000	7	...........	0
	396	39.7	-1.04006E-001	7.25385E-006	0.00000E+000	-1.04022E-001	0.00000E+000	7	...........	0
	399	40	-1.01003E-001	7.28353E-006	0.00000E+000	-1.01022E-001	0.00000E+000	7	...........	0
	402	40.3	-9.79999E-002	7.17116E-006	0.00000E+000	-9.80221E-002	0.00000E+000	7	...........	0
	405	40.6	-9.49969E-002	7.17983E-006	0.00000E+000	-9.50219E-002	0.00000E+000	7	...........	0
	408	40.9	-9.19940E-002	7.21251E-006	0.00000E+000	-9.20218E-002	0.00000E+000	7	...........	0
	411	41.2	-8.89910E-002	7.18383E-006	0.00000E+000	-8.90217E-002	0.00000E+000	7	...........	0
	414	41.5	-8.59980E-002	7.19384E-006	0.00000E+000	-8.60216E-002	0.00000E+000	7	...........	0
	417	41.8	-8.30050E-002	7.42223E-006	0.00000E+000	-8.30214E-002	0.00000E+000	7	...........	0
	420	42.1	-8.00020E-002	7.32754E-006	0.00000E+000	-8.00213E-002	0.00000E+000	7	...........	0
	423	42.4	-7.69990E-002	7.42523E-006	0.00000E+000	-7.70212E-002	0.00000E+000	7	...........	0
	426	42.7	-7.40060E-002	7.48858E-006	0.00000E+000	-7.40211E-002	0.00000E+000	7	...........	0
	429	43	-7.09930E-002	7.46091E-006	0.00000E+000	-7.10210E-002	0.00000E+000	7	...........	0
	432	43.3	-6.79801E-002	7.51393E-006	0.00000E+000	-6.80208E-002	0.00000E+000	7	...........	0
	435	43.6	-6.49871E-002	7.63296E-006	0.00000E+000	-6.50207E-002	0.00000E+000	7	...........	0
	438	43.9	-6.19941E-002	7.62829E-006	0.00000E+000	-6.20206E-002	0.00000E+000	7	...........	0
	441	44.2	-5.90011E-002	7.79400E-006	0.00000E+000	-5.90205E-002	0.00000E+000	7	...........	0
	444	44.5	-5.59881E-002	7.84535E-006	0.00000E+000	-5.60203E-002	0.00000E+000	7	...........	0
	447	44.8	-5.30051E-002	7.82068E-006	0.00000E+000	-5.30202E-002	0.00000E+000	7	...........	0
	450	45.1	-4.99921E-002	8.12843E-006	0.00000E+000	-5.00201E-002	0.00000E+000	7	...........	0
	453	45.4	-4.69992E-002	8.29447E-006	0.00000E+000	-4.70200E-002	0.00000E+000	7	...........	0
	456	45.7	-4.39862E-002	8.46752E-006	0.00000E+000	-4.40199E-002	0.00000E+000	7	...........	0
	459	46	-4.09832E-002	8.45918E-006	0.00000E+000	-4.10197E-002	0.00000E+000	7	...........	0
	462	46.3	-3.79802E-002	8.22545E-006	0.00000E+000	-3.80196E-002	0.00000E+000	7	...........	0
	465	46.6	-3.49972E-002	8.48553E-006	0.00000E+000	-3.50195E-002	0.00000E+000	7	...........	0
	468	46.9	-3.19842E-002	8.71059E-006	0.00000E+000	-3.20194E-002	0.00000E+000	7	...........	0
	471	47.2	-2.90113E-002	8.82262E-006	0.00000E+000	-2.90192E-002	0.00000E+000	7	...........	0
	474	47.5	-2.59883E-002	8.91264E-006	0.00000E+000	-2.60191E-002	0.00000E+000	7	...........	0
	477	47.8	-2.29790E-002	8.93590E-006	0.00000E+000	-2.30190E-002	0.00000E+000	8	...........	0
	480	48.1	-1.99760E-002	9.07591E-006	0.00000E+000	-2.00189E-002	0.00000E+000	8	...........	0
	483	48.4	-1.69710E-002	9.11924E-006	0.00000E+000	-1.70187E-002	0.00000E+000	8	...........	0
	486	48.7	-1.39681E-002	9.05924E-006	0.00000E+000	-1.40186E-002	0.00000E+000	8	...........	0
	489	49	-1.09721E-002	9.18258E-006	0.00000E+000	-1.10185E-002	0.00000E+000	8	...........	0
	492	49.3	-7.96908E-003	9.27259E-006	0.00000E+000	-8.01838E-003	0.00000E+000	8	...........	0
	495	49.6	-4.98911E-003	9.29926E-006	0.00000E+000	-5.01826E-003	0.00000E+000	8	...........	0
	498	49.9	-2.00214E-003	9.40260E-006	0.00000E+000	-2.01814E-003	0.00000E+000	8	...........	0
	501	50.2	1.00385E-003	9.43927E-006	0.00000E+000	9.81987E-004	0.00000E+000	8	...........	0
	504	50.5	4.00884E-003	9.45260E-006	0.00000E+000	3.98211E-003	0.00000E+000	8	...........	0
	507	50.8	7.01283E-003	9.40260E-006	0.00000E+000	6.98223E-003	0.00000E+000	8	...........	0
	510	51.1	1.00068E-002	9.62928E-006	0.00000E+000	9.98235E-003	0.00000E+000	8	...........	0
	513	51.4	1.30008E-002	9.58928E-006	0.00000E+000	1.29825E-002	0.00000E+000	8	...........	0
	516	51.7	1.60028E-002	9.74595E-006	0.00000E+000	1.59826E-002	0.00000E+000	8	...........	0
	519	52	1.90118E-002	9.71928E-006	0.00000E+000	1.89827E-002	0.00000E+000	8	...........	0
	522	52.3	2.20008E-002	9.70929E-006	0.00000E+000	2.19828E-002	0.00000E+000	8	...........	0
	525	52.6	2.49997E-002	9.81596E-006	0.00000E+000	2.49830E-002	0.00000E+000	8	...........	0
	528	52.9	2.80155E-002	9.81929E-006	0.00000E+000	2.79831E-002	0.00000E+000	8	...........	0
	531	53.2	3.10085E-002	9.95930E-006	0.00000E+000	3.09832E-002	0.00000E+000	8	...........	0
	534	53.5	3.40115E-002	9.93263E-006	0.00000E+000	3.39833E-002	0.00000E+000	8	...........	0
	537	53.8	3.70345E-002	1.00193E-005	0.00000E+000	3.69835E-002	0.00000E+000	8	...........	0
	540	54.1	4.00074E-002	1.00693E-005	0.00000E+000	3.99836E-002	0.00000E+000	8	...........	0
	543	54.4	4.30004E-002	1.00493E-005	0.00000E+000	4.29837E-002	0.00000E+000	8	...........	0
	546	54.7	4.60434E-002	1.01560E-005	0.00000E+000	4.59838E-002	0.00000E+000	8	...........	0
	549	55	4.90164E-002	1.01393E-005	0.00000E+000	4.89840E-002	0.00000E+000	8	...........	0
	552	55.3	5.20094E-002	9.97597E-006	0.00000E+000	5.19841E-002	0.00000E+000	8	...........	0
	555	55.6	5.50124E-002	1.00726E-005	0.00000E+000	5.49842E-002	0.00000E+000	8	...........	0
	558	55.9	5.80054E-002	1.00693E-005	0.00000E+000	5.79843E-002	0.00000E+000	8	...........	0
	561	56.2	6.10184E-002	9.86263E-006	0.00000E+000	6.09844E-002	0.00000E+000	8	...........	0
	564	56.5	6.40213E-002	9.92597E-006	0.00000E+000	6.39846E-002	0.00000E+000	8	...........	0
	567	56.8	6.70243E-002	9.93930E-006	0.00000E+000	6.69847E-002	0.00000E+000	8	...........	0
	570	57.1	7.00173E-002	9.92930E-006	0.00000E+000	6.99848E-002	0.00000E+000	8	...........	0
	573	57.4	7.30203E-002	9.96597E-006	0.00000E+000	7.29849E-002	0.00000E+000	8	...........	0
	576	57.7	7.60233E-002	9.91930E-006	0.00000E+000	7.59851E-002	0.00000E+000	8	...........	0
	579	58	7.90163E-002	9.91930E-006	0.00000E+000	7.89852E-002	0.00000E+000	8	...........	0
	582	58.3	8.20193E-002	9.88263E-006	0.00000E+000	8.19853E-002	0.00000E+000	8	...........	0
	585	58.6	8.50222E-002	1.00160E-005	0.00000E+000	8.49854E-002	0.00000E+000	8	...........	0
	588	58.9	8.80152E-002	1.04227E-005	0.00000E+000	8.79855E-002	0.00000E+000	8	...........	0
	591	59.2	9.09982E-002	1.05727E-005	0.00000E+000	9.09857E-002	0.00000E+000	8	...........	0
	594	59.5	9.40212E-002	1.05127E-005	0.00000E+000	9.39858E-002	0.00000E+000	8	...........	0
	597	59.8	9.70142E-002	1.05860E-005	0.00000E+000	9.69859E-002	0.00000E+000	8	...........	0
	600	60.1	9.99972E-002	1.06027E-005	0.00000E+000	9.99860E-002	0.00000E+000	8	...........	0
	603	60.4	1.03020E-001	1.07660E-005	0.00000E+000	1.02986E-001	0.00000E+000	8	...........	0
	606	60.7	1.06013E-001	1.06360E-005	0.00000E+000	1.05986E-001	0.00000E+000	8	...........	0
	609	61	1.08996E-001	1.07060E-005	0.00000E+000	1.08986E-001	0.00000E+000	8	...........	0
	612	61.3	1.11999E-001	1.10194E-005	0.00000E+000	1.11987E-001	0.00000E+000	8	...........	0
	615	61.6	1.15012E-001	1.10194E-005	0.00000E+000	1.14987E-001	0.00000E+000	8	...........	0
	618	61.9	1.18005E-001	1.08960E-005	0.00000E+000	1.17987E-001	0.00000E+000	8	...........	0
	621	62.2	1.21008E-001	1.11027E-005	0.00000E+000	1.20987E-001	0.00000E+000	8	...........	0
	624	62.5	1.24011E-001	1.11661E-005	0.00000E+000	1.23987E-001	0.00000E+000	8	...........	0
	627	62.8	1.27004E-001	1.12094E-005	0.00000E+000	1.26987E-001	0.00000E+000	8	...........	0
	630	63.1	1.29997E-001	1.12327E-005	0.00000E+000	1.29987E-001	0.00000E+000	8	...........	0
	633	63.4	1.33010E-001	1.12294E-005	0.00000E+000	1.32987E-001	0.00000E+000	8	...........	0
	636	63.7	1.36023E-001	1.12761E-005	0.00000E+000	1.35988E-001	0.00000E+000	8	...........	0
	639	64	1.38996E-001	1.14294E-005	0.00000E+000	1.38988E-001	0.00000E+000	8	...........	0
	642	64.3	1.41989E-001	1.13661E-005	0.00000E+000	1.41988E-001	0.00000E+000	8	...........	0
	645	64.6	1.44992E-001	1.13627E-005	0.00000E+000	1.44988E-001	0.00000E+000	8	...........	0
	648	64.9	1.48015E-001	1.14927E-005	0.00000E+000	1.47988E-001	0.00000E+000	8	...........	0
	651	65.2	1.50998E-001	1.15061E-005	0.00000E+000	1.50988E-001	0.00000E+000	8	...........	0
	654	65.5	1.54001E-001	1.14527E-005	0.00000E+000	1.53988E-001	0.00000E+000	8	...........	0
	657	65.8	1.57004E-001	1.15694E-005	0.00000E+000	1.56988E-001	0.00000E+000	8	...........	0
	660	66.1	1.59997E-001	1.14727E-005	0.00000E+000	1.59988E-001	0.00000E+000	8	...........	0
	663	66.4	1.63020E-001	1.14161E-005	0.00000E+000	1.62989E-001	0.00000E+000	8	...........	0
	666	66.7	1.66003E-001	1.12294E-005	0.00000E+000	1.65989E-001	0.00000E+000	8	...........	0
	669	67	1.68996E-001	1.10327E-005	0.00000E+000	1.68989E-001	0.00000E+000	8	...........	0
	672	67.3	1.71989E-001	1.09260E-005	0.00000E+000	1.71989E-001	0.00000E+000	8	...........	0
	675	67.6	1.74992E-001	1.10527E-005	0.00000E+000	1.74989E-001	0.00000E+000	8	...........	0
	678	67.9	1.77985E-001	1.10460E-005	0.00000E+000	1.77989E-001	0.00000E+000	8	...........	0
	681	68.2	1.80998E-001	1.12561E-005	0.00000E+000	1.80989E-001	0.00000E+000	8	...........	0
	684	68.5	1.84001E-001	1.12027E-005	0.00000E+000	1.83989E-001	0.00000E+000	8	...........	0
	687	68.8	1.87004E-001	1.12127E-005	0.00000E+000	1.86990E-001	0.00000E+000	8	...........	0
	690	69.1	1.89997E-001	1.12261E-005	0.00000E+000	1.89990E-001	0.00000E+000	8	...........	0
	693	69.4	1.92990E-001	1.13161E-005	0.00000E+000	1.92990E-001	0.00000E+000	8	...........	0
	696	69.7	1.96003E-001	1.13594E-005	0.00000E+000	1.95990E-001	0.00000E+000	8	...........	0
	699	70	1.98986E-001	1.12894E-005	0.00000E+000	1.98990E-001	0.00000E+000	8	...........	0
	702	70.3	2.01989E-001	1.14194E-005	0.00000E+000	2.01990E-001	0.00000E+000	8	...........	0
	705	70.6	2.04992E-001	1.14427E-005	0.00000E+000	2.04990E-001	0.00000E+000	8	...........	0
	708	70.9	2.08015E-001	1.15594E-005	0.00000E+000	2.07990E-001	0.00000E+000	8	...........	0
	711	71.2	2.10998E-001	1.13661E-005	0.00000E+000	2.10991E-001	0.00000E+000	8	...........	0
	714	71.5	2.14021E-001	1.16161E-005	0.00000E+000	2.13991E-001	0.00000E+000	8	...........	0
	717	71.8	2.16994E-001	1.15861E-005	0.00000E+000	2.16991E-001	0.00000E+000	8	...........	0
	720	72.1	2.19997E-001	1.16728E-005	0.00000E+000	2.19991E-001	0.00000E+000	8	...........	0
	723	72.4	2.22990E-001	1.18128E-005	0.00000E+000	2.22991E-001	0.00000E+000	8	...........	0
	726	72.7	2.26013E-001	1.17194E-005	0.00000E+000	2.25991E-001	0.00000E+000	8	...........	0
	729	73	2.28976E-001	1.21228E-005	0.00000E+000	2.28991E-001	0.00000E+000	8	...........	0
	732	73.3	2.31999E-001	1.23295E-005	0.00000E+000	2.31991E-001	0.00000E+000	8	...........	0
	735	73.6	2.34982E-001	1.19528E-005	0.00000E+000	2.34992E-001	0.00000E+000	8	...........	0
	738	73.9	2.37994E-001	1.19194E-005	0.00000E+000	2.37992E-001	0.00000E+000	8	...........	0
	741	74.2	2.40977E-001	1.19028E-005	0.00000E+000	2.40992E-001	0.00000E+000	8	...........	0
	744	74.5	2.43990E-001	1.21428E-005	0.00000E+000	2.43992E-001	0.00000E+000	8	...........	0
	747	74.8	2.46973E-001	1.22861E-005	0.00000E+000	2.46992E-001	0.00000E+000	8	...........	0
	750	75.1	2.49986E-001	1.24061E-005	0.00000E+000	2.49992E-001	0.00000E+000	8	...........	0
	753	75.4	2.52989E-001	1.27162E-005	0.00000E+000	2.52992E-001	0.00000E+000	8	...........	0
	756	75.7	2.55952E-001	1.30128E-005	0.00000E+000	2.55992E-001	0.00000E+000	8	...........	0
	759	76	2.58955E-001	1.28728E-005	0.00000E+000	2.58993E-001	0.00000E+000	8	...........	0
	762	76.3	2.61958E-001	1.29095E-005	0.00000E+000	2.61993E-001	0.00000E+000	8	...........	0
	765	76.6	2.64981E-001	1.30128E-005	0.00000E+000	2.64993E-001	0.00000E+000	8	...........	0
	768	76.9	2.68155E-001	1.31962E-005	0.00000E+000	2.67993E-001	0.00000E+000	8	...........	0
	771	77.2	2.71158E-001	1.35429E-005	0.00000E+000	2.70993E-001	0.00000E+000	8	...........	0
	774	77.5	2.74161E-001	1.33362E-005	0.00000E+000	2.73993E-001	0.00000E+000	8	...........	0
	777	77.8	2.77164E-001	1.32862E-005	0.00000E+000	2.76993E-001	0.00000E+000	8	...........	0
	780	78.1	2.80167E-001	1.35396E-005	0.00000E+000	2.79993E-001	0.00000E+000	8	...........	0
	783	78.4	2.83170E-001	1.35062E-005	0.00000E+000	2.82993E-001	0.00000E+000	8	...........	0
	786	78.7	2.86173E-001	1.32729E-005	0.00000E+000	2.85994E-001	0.00000E+000	8	...........	0
	789	79	2.89176E-001	1.30462E-005	0.00000E+000	2.88994E-001	0.00000E+000	8	...........	0
	792	79.3	2.92079E-001	1.27495E-005	0.00000E+000	2.91994E-001	0.00000E+000	8	...........	0
	795	79.6	2.95182E-001	1.29095E-005	0.00000E+000	2.94994E-001	0.00000E+000	8	...........	0
	798	79.9	2.98085E-001	1.30595E-005	0.00000E+000	2.97994E-001	0.00000E+000	8	...........	0
	801	80.2	3.01188E-001	1.30862E-005	0.00000E+000	3.00994E-001	0.00000E+000	8	...........	0
	804	80.5	3.04191E-001	1.32062E-005	0.00000E+000	3.03994E-001	0.00000E+000	8	...........	0
	807	80.8	3.07194E-001	1.32762E-005	0.00000E+000	3.06994E-001	0.00000E+000	8	...........	0
	810	81.1	3.10197E-001	1.33362E-005	0.00000E+000	3.09995E-001	0.00000E+000	8	...........	0
	813	81.4	3.13100E-001	1.35329E-005	0.00000E+000	3.12995E-001	0.00000E+000	8	...........	0
	816	81.7	3.16203E-001	1.36162E-005	0.00000E+000	3.15995E-001	0.00000E+000	8	...........	0
	819	82	3.19206E-001	1.39229E-005	0.00000E+000	3.18995E-001	0.00000E+000	8	...........	0
	822	82.3	3.22109E-001	1.40896E-005	0.00000E+000	3.21995E-001	0.00000E+000	8	...........	0
	825	82.6	3.25112E-001	1.42363E-005	0.00000E+000	3.24995E-001	0.00000E+000	8	...........	0
	828	82.9	3.28115E-001	1.43329E-005	0.00000E+000	3.27995E-001	0.00000E+000	8	...........	0
	831	83.2	3.31218E-001	1.40296E-005	0.00000E+000	3.30995E-001	0.00000E+000	8	...........	0
	834	83.5	3.34121E-001	1.39696E-005	0.00000E+000	3.33996E-001	0.00000E+000	8	...........	0
	837	83.8	3.37124E-001	1.39496E-005	0.00000E+000	3.36996E-001	0.00000E+000	8	...........	0
	840	84.1	3.40227E-001	1.40329E-005	0.00000E+000	3.39996E-001	0.00000E+000	8	...........	0
	843	84.4	3.43130E-001	1.39329E-005	0.00000E+000	3.42996E-001	0.00000E+000	8	...........	0
	846	84.7	3.46233E-001	1.40229E-005	0.00000E+000	3.45996E-001	0.00000E+000	8	...........	0
	849	85	3.49136E-001	1.41029E-005	0.00000E+000	3.48996E-001	0.00000E+000	8	...........	0
	852	85.3	3.52139E-001	1.43463E-005	0.00000E+000	3.51996E-001	0.00000E+000	8	...........	0
	855	85.6	3.55142E-001	1.46896E-005	0.00000E+000	3.54996E-001	0.00000E+000	8	...........	0
	858	85.9	3.58145E-001	1.47630E-005	0.00000E+000	3.57997E-001	0.00000E+000	8	...........	0
	861	86.2	3.61348E-001	1.49430E-005	0.00000E+000	3.60997E-001	0.00000E+000	8	...........	0
	864	86.5	3.64251E-001	1.44663E-005	0.00000E+000	3.63997E-001	0.00000E+000	8	...........	0
	867	86.8	3.67154E-001	1.45630E-005	0.00000E+000	3.66997E-001	0.00000E+000	8	...........	0
	870	87.1	3.70056E-001	1.48996E-005	0.00000E+000	3.69997E-001	0.00000E+000	8	...........	0
	873	87.4	3.73260E-001	1.49563E-005	0.00000E+000	3.72997E-001	0.00000E+000	8	...........	0
	876	87.7	3.76162E-001	1.51430E-005	0.00000E+000	3.75997E-001	0.00000E+000	8	...........	0
	879	88	3.79266E-001	1.55330E-005	0.00000E+000	3.78997E-001	0.00000E+000	8	...........	0
	882	88.3	3.82169E-001	1.54630E-005	0.00000E+000	3.81998E-001	0.00000E+000	8	...........	0
	885	88.6	3.85071E-001	1.54797E-005	0.00000E+000	3.84998E-001	0.00000E+000	8	...........	0
	888	88.9	3.88275E-001	1.55664E-005	0.00000E+000	3.87998E-001	0.00000E+000	8	...........	0
	891	89.2	3.91177E-001	1.53563E-005	0.00000E+000	3.90998E-001	0.00000E+000	8	...........	0
	894	89.5	3.94180E-001	1.57397E-005	0.00000E+000	3.93998E-001	0.00000E+000	8	...........	0
	897	89.8	3.97183E-001	1.58164E-005	0.00000E+000	3.96998E-001	0.00000E+000	8	...........	0
	900	90.1	4.00186E-001	1.61864E-005	0.00000E+000	3.99998E-001	0.00000E+000	8	...........	0
	903	90.4	4.03289E-001	1.62364E-005	0.00000E+000	4.02998E-001	0.00000E+000	8	...........	0
	906	90.7	4.06192E-001	1.62564E-005	0.00000E+000	4.05999E-001	0.00000E+000	8	...........	0
	909	91	4.09195E-001	1.64198E-005	0.00000E+000	4.08999E-001	0.00000E+000	8	...........	0
	912	91.3	4.12198E-001	1.64564E-005	0.00000E+000	4.11999E-001	0.00000E+000	8	...........	0
	915	91.6	4.15201E-001	1.65698E-005	0.00000E+000	4.14999E-001	0.00000E+000	8	...........	0
	918	91.9	4.18204E-001	1.64664E-005	0.00000E+000	4.17999E-001	0.00000E+000	8	...........	0
	921	92.2	4.21107E-001	1.66431E-005	0.00000E+000	4.20999E-001	0.00000E+000	8	...........	0
	924	92.5	4.24210E-001	1.65364E-005	0.00000E+000	4.23999E-001	0.00000E+000	8	...........	0
	927	92.8	4.27213E-001	1.65331E-005	0.00000E+000	4.26999E-001	0.00000E+000	8	...........	0
	930	93.1	4.30216E-001	1.66931E-005	0.00000E+000	4.30000E-001	0.00000E+000	8	...........	0
	933	93.4	4.33219E-001	1.66131E-005	0.00000E+000	4.33000E-001	0.00000E+000	8	...........	0
	936	93.7	4.36122E-001	1.67598E-005	0.00000E+000	4.36000E-001	0.00000E+000	8	...........	0
	939	94	4.39225E-001	1.65931E-005	0.00000E+000	4.39000E-001	0.00000E+000	8	...........	0
	942	94.3	4.42128E-001	1.65098E-005	0.00000E+000	4.42000E-001	0.00000E+000	8	...........	0
	945	94.6	4.45231E-001	1.63497E-005	0.00000E+000	4.45000E-001	0.00000E+000	8	...........	0
	948	94.9	4.48234E-001	1.63464E-005	0.00000E+000	4.48000E-001	0.00000E+000	8	...........	0
	951	95.2	4.51137E-001	1.64331E-005	0.00000E+000	4.51000E-001	0.00000E+000	8	...........	0
	954	95.5	4.54240E-001	1.68031E-005	0.00000E+000	4.54001E-001	0.00000E+000	8	...........	0
	957	95.8	4.57143E-001	1.71131E-005	0.00000E+000	4.57001E-001	0.00000E+000	8	...........	0
	960	96.1	4.60246E-001	1.72998E-005	0.00000E+000	4.60001E-001	0.00000E+000	8	...........	0
	963	96.4	4.63149E-001	1.75465E-005	0.00000E+000	4.63001E-001	0.00000E+000	8	...........	0
	966	96.7	4.66152E-001	1.76932E-005	0.00000E+000	4.66001E-001	0.00000E+000	8	...........	0
	969	97	4.69255E-001	1.79399E-005	0.00000E+000	4.69001E-001	0.00000E+000	8	...........	0
	972	97.3	4.72158E-001	1.81365E-005	0.00000E+000	4.72001E-001	0.00000E+000	8	...........	0
	975	97.6	4.75261E-001	1.81299E-005	0.00000E+000	4.75001E-001	0.00000E+000	8	...........	0
	978	97.9	4.78264E-001	1.81699E-005	0.00000E+000	4.78001E-001	0.00000E+000	8	...........	0
	981	98.2	4.81167E-001	1.84599E-005	0.00000E+000	4.81002E-001	0.00000E+000	8	...........	0
	984	98.5	4.84170E-001	1.84866E-005	0.00000E+000	4.84002E-001	0.00000E+000	8	...........	0
	987	98.8	4.87173E-001	1.79132E-005	0.00000E+000	4.87002E-001	0.00000E+000	8	...........	0
	990	99.1	4.90276E-001	1.84699E-005	0.00000E+000	4.90002E-001	0.00000E+000	8	...........	0
	993	99.4	4.93079E-001	1.84499E-005	0.00000E+000	4.93002E-001	0.00000E+000	8	...........	0
	996	99.7	4.96182E-001	1.85666E-005	0.00000E+000	4.96002E-001	0.00000E+000	8	...........	0
	999	100	4.99185E-001	1.80865E-005	0.00000E+000	4.99002E-001	0.00000E+000	8	...........	0
	1002	100.3	5.02288E-001	1.82765E-005	0.00000E+000	5.02002E-001	0.00000E+000	8	...........	0
	1005	100.6	5.05191E-001	1.80065E-005	0.00000E+000	5.05003E-001	0.00000E+000	8	...........	0
	1008	100.9	5.08194E-001	1.80132E-005	0.00000E+000	5.08003E-001	0.00000E+000	8	...........	0
	1011	101.2	5.11197E-001	1.80332E-005	0.00000E+000	5.11003E-001	0.00000E+000	8	...........	0
	1014	101.5	5.14200E-001	1.80399E-005	0.00000E+000	5.14003E-001	0.00000E+000	8	...........	0
	1017	101.8	5.17303E-001	1.80465E-005	0.00000E+000	5.17003E-001	0.00000E+000	8	...........	0
	1020	102.1	5.20206E-001	1.80899E-005	0.00000E+000	5.20003E-001	0.00000E+000	8	...........	0
	1023	102.4	5.23209E-001	1.82165E-005	0.00000E+000	5.23003E-001	0.00000E+000	8	...........	0
	1026	102.7	5.26212E-001	1.82632E-005	0.00000E+000	5.26003E-001	0.00000E+000	8	...........	0
	1029	103	5.29215E-001	1.82866E-005	0.00000E+000	5.29004E-001	0.00000E+000	8	...........	0
	1032	103.3	5.32118E-001	1.85332E-005	0.00000E+000	5.32004E-001	0.00000E+000	8	...........	0
	1035	103.6	5.35321E-001	1.86166E-005	0.00000E+000	5.35004E-001	0.00000E+000	8	...........	0
	1038	103.9	5.38224E-001	1.87866E-005	0.00000E+000	5.38004E-001	0.00000E+000	8	...........	0
	1041	104.2	5.41327E-001	1.86666E-005	0.00000E+000	5.41004E-001	0.00000E+000	8	...........	0
	1044	104.5	5.44230E-001	1.87733E-005	0.00000E+000	5.44004E-001	0.00000E+000	8	...........	0
	1047	104.8	5.47133E-001	1.88133E-005	0.00000E+000	5.47004E-001	0.00000E+000	8	...........	0
	1050	105.1	5.50236E-001	1.89966E-005	0.00000E+000	5.50004E-001	0.00000E+000	8	...........	0
	1053	105.4	5.53239E-001	1.90066E-005	0.00000E+000	5.53005E-001	0.00000E+000	8	...........	0
	1056	105.7	5.56242E-001	1.91466E-005	0.00000E+000	5.56005E-001	0.00000E+000	8	...........	0
	1059	106	5.59245E-001	1.90199E-005	0.00000E+000	5.59005E-001	0.00000E+000	8	...........	0
	1062	106.3	5.62148E-001	1.93133E-005	0.00000E+000	5.62005E-001	0.00000E+000	8	...........	0
	1065	106.6	5.65251E-001	1.92600E-005	0.00000E+000	5.65005E-001	0.00000E+000	8	...........	0
	1068	106.9	5.68254E-001	1.96666E-005	0.00000E+000	5.68005E-001	0.00000E+000	8	...........	0
	1071	107.2	5.71157E-001	1.95800E-005	0.00000E+000	5.71005E-001	0.00000E+000	8	...........	0
	1074	107.5	5.74260E-001	1.95200E-005	0.00000E+000	5.74005E-001	0.00000E+000	8	...........	0
	1077	107.8	5.77163E-001	1.96566E-005	0.00000E+000	5.77006E-001	0.00000E+000	8	...........	0
	1080	108.1	5.80166E-001	1.96300E-005	0.00000E+000	5.80006E-001	0.00000E+000	8	...........	0
	1083	108.4	5.83269E-001	1.99100E-005	0.00000E+000	5.83006E-001	0.00000E+000	8	...........	0
	1086	108.7	5.86272E-001	2.04400E-005	0.00000E+000	5.86006E-001	0.00000E+000	8	...........	0
	1089	109	5.89275E-001	2.10167E-005	0.00000E+000	5.89006E-001	0.00000E+000	8	...........	0
	1092	109.3	5.92178E-001	2.07967E-005	0.00000E+000	5.92006E-001	0.00000E+000	8	...........	0
	1095	109.6	5.95181E-001	2.08101E-005	0.00000E+000	5.95006E-001	0.00000E+000	8	...........	0
	1098	109.9	5.98284E-001	2.09834E-005	0.00000E+000	5.98006E-001	0.00000E+000	8	...........	0
	1100	110.1	6.00286E-001	2.03700E-005	0.00000E+000	6.00006E-001	0.00000E+000	8	...........	0