File: LSV ZFO/ZFO_h300_light_reator.DTA
EXPLAIN
TAG	LSV
TITLE	LABEL	Linear Sweep Voltammetry	Test &Identifier
DATE	LABEL	7/5/2024	Date
TIME	LABEL	17:45:49	Time
NOTES	NOTES	1	&Notes...

PSTAT	PSTAT	L3FNano	Potentiostat
VINIT	POTEN	-5.00000E-001	F	&Initial E (V)
VFINAL	POTEN	6.00000E-001	F	&Final E (V)
SCANRATE	QUANT	9.99998E+000	&Scan Rate (mV/s)
STEPSIZE	QUANT	1.00000E+000	St&ep Size (mV)
IMODE	SELECTOR	0	I/E Range &Mode
IRANGE	QUANT	1.00000E+001	&Max Current (mA)
AREA	QUANT	1.00000E+000	Electrode &Area (cm^2)
ELECTRODETYPE	SELECTOR	0	Electrode Type
STRIPPING	TOGGLE	F	Used for Stripping
POLARITY	TOGGLE	F	Signal Polarity
CONDIT	TWOPARAM	F	1.50000E+001	0.00000E+000	Conditionin&g	Time(s)	E(V)
DELAY	TWOPARAM	F	3.00000E+001	0.00000E+000	Init. De&lay	Time(s)	Stab.(mV/s)
EQDELAY	QUANT	5.00000E+000	Equil. &Time (s)
IRCOMP	SELECTOR	0	IRCom&p
PFCOR	QUANT	5.00000E+001	PF Corr. (ohm)
SAMPLINGMODE	SELECTOR	0	Sampling &Mode
EOC	QUANT	0	Open Circuit (V)
PSTATMODEL	IQUANT	48	Pstat Model
PSTATSECTION	LABEL	IFC1000-07082	Pstat Section
PSTATSERIALNO	LABEL	07082	Pstat Serial Number
CTRLMODE	IQUANT	1	Control Mode
IESTAB	IQUANT	2	I/E Stability
CASPEED	IQUANT	2	Control Amp Speed
CONVENTION	IQUANT	1	Current Convention
ICHRANGE	IQUANT	2	Ich Range
ICHRANGEMODE	TOGGLE	F	Ich Auto Range
ICHOFFSETENABLE	TOGGLE	F	Ich Offset Enable
ICHOFFSET	QUANT	0	Ich Offset (V)
ICHFILTER	IQUANT	3	Ich Filter
VCHRANGE	IQUANT	2	Vch Range
VCHRANGEMODE	TOGGLE	T	Vch Auto Range
VCHOFFSETENABLE	TOGGLE	F	Vch Offset Enable
VCHOFFSET	QUANT	0	Vch Offset (V)
VCHFILTER	IQUANT	3	Vch Filter
IERANGELOWERLIMIT	IQUANT	4	I/E Range Lower Limit
IERANGEMODE	TOGGLE	T	I/E AutoRange
IERANGE	IQUANT	11	I/E Range
ACHSELECT	IQUANT	4	Ach Select
CABLEID	IQUANT	14	Cable ID
DCCALDATE	LABEL	7/3/2024	DC Calibration Date
ACCALDATE	LABEL	7/3/2024	AC Calibration Date
FRAMEWORKVERSION	QUANT	6.24	Framework Version
INSTRUMENTVERSION	LABEL	3.28	Instrument Version
CURVE	TABLE	1101
	Pt	T	Vf	Im	Vu	Sig	Ach	IERange	Over	Cycle
	#	s	V vs. Ref.	A	V	V	V	#	bits	#
	0	0.1	-5.00110E-001	-1.46991E-005	0.00000E+000	-4.99988E-001	0.00000E+000	11	...........	0
	3	0.4	-4.97007E-001	-1.84993E-005	0.00000E+000	-4.96988E-001	0.00000E+000	8	...........	0
	6	0.7	-4.94104E-001	-1.73259E-005	0.00000E+000	-4.93988E-001	0.00000E+000	8	...........	0
	9	1	-4.91101E-001	-1.63025E-005	0.00000E+000	-4.90988E-001	0.00000E+000	8	...........	0
	12	1.3	-4.88098E-001	-1.52191E-005	0.00000E+000	-4.87988E-001	0.00000E+000	8	...........	0
	15	1.6	-4.84995E-001	-1.41790E-005	0.00000E+000	-4.84988E-001	0.00000E+000	8	...........	0
	18	1.9	-4.82092E-001	-1.33523E-005	0.00000E+000	-4.81988E-001	0.00000E+000	8	...........	0
	21	2.2	-4.79089E-001	-1.25623E-005	0.00000E+000	-4.78988E-001	0.00000E+000	8	...........	0
	24	2.5	-4.76086E-001	-1.16322E-005	0.00000E+000	-4.75987E-001	0.00000E+000	8	...........	0
	27	2.8	-4.72983E-001	-1.10355E-005	0.00000E+000	-4.72987E-001	0.00000E+000	8	...........	0
	30	3.1	-4.69980E-001	-1.03088E-005	0.00000E+000	-4.69987E-001	0.00000E+000	8	...........	0
	33	3.4	-4.67077E-001	-9.61540E-006	0.00000E+000	-4.66987E-001	0.00000E+000	8	...........	0
	36	3.7	-4.64074E-001	-9.13870E-006	0.00000E+000	-4.63987E-001	0.00000E+000	8	...........	0
	39	4	-4.61071E-001	-8.51532E-006	0.00000E+000	-4.60987E-001	0.00000E+000	8	...........	0
	42	4.3	-4.58068E-001	-7.90194E-006	0.00000E+000	-4.57987E-001	0.00000E+000	8	...........	0
	45	4.6	-4.54965E-001	-7.15577E-006	0.00000E+000	-4.54987E-001	0.00000E+000	7	...........	0
	48	4.9	-4.52062E-001	-6.62629E-006	0.00000E+000	-4.51987E-001	0.00000E+000	7	...........	0
	51	5.2	-4.49059E-001	-6.22485E-006	0.00000E+000	-4.48986E-001	0.00000E+000	7	...........	0
	54	5.5	-4.46056E-001	-5.71504E-006	0.00000E+000	-4.45986E-001	0.00000E+000	7	...........	0
	57	5.8	-4.42953E-001	-5.28759E-006	0.00000E+000	-4.42986E-001	0.00000E+000	7	...........	0
	60	6.1	-4.40050E-001	-4.91616E-006	0.00000E+000	-4.39986E-001	0.00000E+000	7	...........	0
	63	6.4	-4.37047E-001	-4.54072E-006	0.00000E+000	-4.36986E-001	0.00000E+000	7	...........	0
	66	6.7	-4.34044E-001	-4.21530E-006	0.00000E+000	-4.33986E-001	0.00000E+000	7	...........	0
	69	7	-4.31041E-001	-3.87520E-006	0.00000E+000	-4.30986E-001	0.00000E+000	7	...........	0
	72	7.3	-4.27938E-001	-3.54078E-006	0.00000E+000	-4.27986E-001	0.00000E+000	7	...........	0
	75	7.6	-4.25035E-001	-3.25937E-006	0.00000E+000	-4.24985E-001	0.00000E+000	7	...........	0
	78	7.9	-4.22032E-001	-2.95595E-006	0.00000E+000	-4.21985E-001	0.00000E+000	7	...........	0
	81	8.2	-4.19029E-001	-2.73822E-006	0.00000E+000	-4.18985E-001	0.00000E+000	7	...........	0
	84	8.5	-4.16026E-001	-2.39513E-006	0.00000E+000	-4.15985E-001	0.00000E+000	7	...........	0
	87	8.8	-4.13023E-001	-2.24342E-006	0.00000E+000	-4.12985E-001	0.00000E+000	7	...........	0
	90	9.1	-4.10020E-001	-2.01869E-006	0.00000E+000	-4.09985E-001	0.00000E+000	7	...........	0
	93	9.4	-4.07117E-001	-1.78896E-006	0.00000E+000	-4.06985E-001	0.00000E+000	7	...........	0
	96	9.7	-4.04014E-001	-1.64092E-006	0.00000E+000	-4.03985E-001	0.00000E+000	7	...........	0
	99	10	-4.01111E-001	-1.44354E-006	0.00000E+000	-4.00984E-001	0.00000E+000	7	...........	0
	102	10.3	-3.98008E-001	-1.25815E-006	0.00000E+000	-3.97984E-001	0.00000E+000	7	...........	0
	105	10.6	-3.94905E-001	-1.11111E-006	0.00000E+000	-3.94984E-001	0.00000E+000	7	...........	0
	108	10.9	-3.92102E-001	-9.33729E-007	0.00000E+000	-3.91984E-001	0.00000E+000	7	...........	0
	111	11.2	-3.88999E-001	-8.46372E-007	0.00000E+000	-3.88984E-001	0.00000E+000	7	...........	0
	114	11.5	-3.86096E-001	-7.36342E-007	0.00000E+000	-3.85984E-001	0.00000E+000	7	...........	0
	117	11.8	-3.83093E-001	-5.82633E-007	0.00000E+000	-3.82984E-001	0.00000E+000	7	...........	0
	120	12.1	-3.80190E-001	-4.68935E-007	0.00000E+000	-3.79984E-001	0.00000E+000	7	...........	0
	123	12.4	-3.76987E-001	-3.36232E-007	0.00000E+000	-3.76983E-001	0.00000E+000	7	...........	0
	126	12.7	-3.74084E-001	-2.19533E-007	0.00000E+000	-3.73983E-001	0.00000E+000	7	...........	0
	129	13	-3.70881E-001	-1.10170E-007	0.00000E+000	-3.70983E-001	0.00000E+000	7	...........	0
	132	13.3	-3.68078E-001	1.11971E-008	0.00000E+000	-3.67983E-001	0.00000E+000	7	...........	0
	135	13.6	-3.65075E-001	1.52903E-007	0.00000E+000	-3.64983E-001	0.00000E+000	7	...........	0
	138	13.9	-3.61972E-001	2.56931E-007	0.00000E+000	-3.61983E-001	0.00000E+000	7	...........	0
	141	14.2	-3.59069E-001	3.59293E-007	0.00000E+000	-3.58983E-001	0.00000E+000	7	...........	0
	144	14.5	-3.55966E-001	4.27311E-007	0.00000E+000	-3.55983E-001	0.00000E+000	7	...........	0
	147	14.8	-3.53063E-001	4.46317E-007	0.00000E+000	-3.52982E-001	0.00000E+000	7	...........	0
	150	15.1	-3.49960E-001	5.71018E-007	0.00000E+000	-3.49982E-001	0.00000E+000	7	...........	0
	153	15.4	-3.47157E-001	6.91051E-007	0.00000E+000	-3.46982E-001	0.00000E+000	7	...........	0
	156	15.7	-3.43954E-001	7.20725E-007	0.00000E+000	-3.43982E-001	0.00000E+000	7	...........	0
	159	16	-3.41051E-001	7.72406E-007	0.00000E+000	-3.40982E-001	0.00000E+000	7	...........	0
	162	16.3	-3.38048E-001	8.61431E-007	0.00000E+000	-3.37982E-001	0.00000E+000	7	...........	0
	165	16.6	-3.35145E-001	9.26115E-007	0.00000E+000	-3.34982E-001	0.00000E+000	7	...........	0
	168	16.9	-3.31942E-001	1.03915E-006	0.00000E+000	-3.31982E-001	0.00000E+000	7	...........	0
	171	17.2	-3.29039E-001	1.12250E-006	0.00000E+000	-3.28982E-001	0.00000E+000	7	...........	0
	174	17.5	-3.26036E-001	1.20719E-006	0.00000E+000	-3.25981E-001	0.00000E+000	7	...........	0
	177	17.8	-3.23033E-001	1.29722E-006	0.00000E+000	-3.22981E-001	0.00000E+000	7	...........	0
	180	18.1	-3.20030E-001	1.37124E-006	0.00000E+000	-3.19981E-001	0.00000E+000	7	...........	0
	183	18.4	-3.17027E-001	1.46660E-006	0.00000E+000	-3.16981E-001	0.00000E+000	7	...........	0
	186	18.7	-3.14024E-001	1.52861E-006	0.00000E+000	-3.13981E-001	0.00000E+000	7	...........	0
	189	19	-3.11122E-001	1.61564E-006	0.00000E+000	-3.10981E-001	0.00000E+000	7	...........	0
	192	19.3	-3.08018E-001	1.64698E-006	0.00000E+000	-3.07981E-001	0.00000E+000	7	...........	0
	195	19.6	-3.05116E-001	1.75234E-006	0.00000E+000	-3.04981E-001	0.00000E+000	7	...........	0
	198	19.9	-3.02113E-001	1.76234E-006	0.00000E+000	-3.01980E-001	0.00000E+000	7	...........	0
	201	20.2	-2.99010E-001	1.85970E-006	0.00000E+000	-2.98980E-001	0.00000E+000	7	...........	0
	204	20.5	-2.96107E-001	1.88371E-006	0.00000E+000	-2.95980E-001	0.00000E+000	7	...........	0
	207	20.8	-2.93104E-001	1.92372E-006	0.00000E+000	-2.92980E-001	0.00000E+000	7	...........	0
	210	21.1	-2.90001E-001	1.94640E-006	0.00000E+000	-2.89980E-001	0.00000E+000	7	...........	0
	213	21.4	-2.86998E-001	2.04609E-006	0.00000E+000	-2.86980E-001	0.00000E+000	7	...........	0
	216	21.7	-2.83995E-001	2.15579E-006	0.00000E+000	-2.83980E-001	0.00000E+000	7	...........	0
	219	22	-2.81092E-001	2.13178E-006	0.00000E+000	-2.80980E-001	0.00000E+000	7	...........	0
	222	22.3	-2.77989E-001	2.24915E-006	0.00000E+000	-2.77979E-001	0.00000E+000	7	...........	0
	225	22.6	-2.74986E-001	2.30383E-006	0.00000E+000	-2.74979E-001	0.00000E+000	7	...........	0
	228	22.9	-2.71983E-001	2.38885E-006	0.00000E+000	-2.71979E-001	0.00000E+000	7	...........	0
	231	23.2	-2.69080E-001	2.46854E-006	0.00000E+000	-2.68979E-001	0.00000E+000	7	...........	0
	234	23.5	-2.65977E-001	2.53656E-006	0.00000E+000	-2.65979E-001	0.00000E+000	7	...........	0
	237	23.8	-2.62974E-001	2.75495E-006	0.00000E+000	-2.62979E-001	0.00000E+000	7	...........	0
	240	24.1	-2.60071E-001	2.81930E-006	0.00000E+000	-2.59979E-001	0.00000E+000	7	...........	0
	243	24.4	-2.56868E-001	2.87732E-006	0.00000E+000	-2.56979E-001	0.00000E+000	7	...........	0
	246	24.7	-2.53965E-001	3.01035E-006	0.00000E+000	-2.53978E-001	0.00000E+000	7	...........	0
	249	25	-2.50962E-001	3.03569E-006	0.00000E+000	-2.50978E-001	0.00000E+000	7	...........	0
	252	25.3	-2.47959E-001	3.18774E-006	0.00000E+000	-2.47978E-001	0.00000E+000	7	...........	0
	255	25.6	-2.44956E-001	3.15339E-006	0.00000E+000	-2.44978E-001	0.00000E+000	7	...........	0
	258	25.9	-2.41963E-001	3.30077E-006	0.00000E+000	-2.41978E-001	0.00000E+000	7	...........	0
	261	26.2	-2.38990E-001	3.34811E-006	0.00000E+000	-2.38978E-001	0.00000E+000	7	...........	0
	264	26.5	-2.35977E-001	3.36579E-006	0.00000E+000	-2.35978E-001	0.00000E+000	7	...........	0
	267	26.8	-2.32914E-001	3.48782E-006	0.00000E+000	-2.32978E-001	0.00000E+000	7	...........	0
	270	27.1	-2.29951E-001	3.52416E-006	0.00000E+000	-2.29977E-001	0.00000E+000	7	...........	0
	273	27.4	-2.26938E-001	3.73855E-006	0.00000E+000	-2.26977E-001	0.00000E+000	7	...........	0
	276	27.7	-2.23915E-001	3.73489E-006	0.00000E+000	-2.23977E-001	0.00000E+000	7	...........	0
	279	28	-2.20932E-001	3.80957E-006	0.00000E+000	-2.20977E-001	0.00000E+000	7	...........	0
	282	28.3	-2.17919E-001	3.88059E-006	0.00000E+000	-2.17977E-001	0.00000E+000	7	...........	0
	285	28.6	-2.14926E-001	3.83925E-006	0.00000E+000	-2.14977E-001	0.00000E+000	7	...........	0
	288	28.9	-2.11913E-001	3.89526E-006	0.00000E+000	-2.11977E-001	0.00000E+000	7	...........	0
	291	29.2	-2.08910E-001	4.04097E-006	0.00000E+000	-2.08977E-001	0.00000E+000	7	...........	0
	294	29.5	-2.05907E-001	4.07731E-006	0.00000E+000	-2.05976E-001	0.00000E+000	7	...........	0
	297	29.8	-2.02924E-001	4.23469E-006	0.00000E+000	-2.02976E-001	0.00000E+000	7	...........	0
	300	30.1	-1.99901E-001	4.33539E-006	0.00000E+000	-1.99976E-001	0.00000E+000	7	...........	0
	303	30.4	-1.96908E-001	4.41107E-006	0.00000E+000	-1.96976E-001	0.00000E+000	7	...........	0
	306	30.7	-1.93925E-001	4.47176E-006	0.00000E+000	-1.93976E-001	0.00000E+000	7	...........	0
	309	31	-1.90902E-001	4.48109E-006	0.00000E+000	-1.90976E-001	0.00000E+000	7	...........	0
	312	31.3	-1.87919E-001	4.63780E-006	0.00000E+000	-1.87976E-001	0.00000E+000	7	...........	0
	315	31.6	-1.84926E-001	4.72983E-006	0.00000E+000	-1.84976E-001	0.00000E+000	7	...........	0
	318	31.9	-1.81903E-001	4.79618E-006	0.00000E+000	-1.81975E-001	0.00000E+000	7	...........	0
	321	32.2	-1.78930E-001	4.91021E-006	0.00000E+000	-1.78975E-001	0.00000E+000	7	...........	0
	324	32.5	-1.75907E-001	5.03124E-006	0.00000E+000	-1.75975E-001	0.00000E+000	7	...........	0
	327	32.8	-1.72935E-001	5.13661E-006	0.00000E+000	-1.72975E-001	0.00000E+000	7	...........	0
	330	33.1	-1.69942E-001	5.38901E-006	0.00000E+000	-1.69975E-001	0.00000E+000	7	...........	0
	333	33.4	-1.66959E-001	5.32766E-006	0.00000E+000	-1.67025E-001	0.00000E+000	7	...........	0
	336	33.7	-1.63976E-001	5.44369E-006	0.00000E+000	-1.64025E-001	0.00000E+000	7	...........	0
	339	34	-1.60973E-001	5.73310E-006	0.00000E+000	-1.61025E-001	0.00000E+000	7	...........	0
	342	34.3	-1.57980E-001	5.87381E-006	0.00000E+000	-1.58025E-001	0.00000E+000	7	...........	0
	345	34.6	-1.54977E-001	5.88481E-006	0.00000E+000	-1.55024E-001	0.00000E+000	7	...........	0
	348	34.9	-1.51984E-001	6.03285E-006	0.00000E+000	-1.52024E-001	0.00000E+000	7	...........	0
	351	35.2	-1.49001E-001	6.14888E-006	0.00000E+000	-1.49024E-001	0.00000E+000	7	...........	0
	354	35.5	-1.45988E-001	6.30259E-006	0.00000E+000	-1.46024E-001	0.00000E+000	7	...........	0
	357	35.8	-1.43025E-001	6.45263E-006	0.00000E+000	-1.43024E-001	0.00000E+000	7	...........	0
	360	36.1	-1.40032E-001	6.54399E-006	0.00000E+000	-1.40024E-001	0.00000E+000	7	...........	0
	363	36.4	-1.36999E-001	6.61968E-006	0.00000E+000	-1.37024E-001	0.00000E+000	7	...........	0
	366	36.7	-1.34006E-001	6.73638E-006	0.00000E+000	-1.34024E-001	0.00000E+000	7	...........	0
	369	37	-1.31013E-001	6.77205E-006	0.00000E+000	-1.31023E-001	0.00000E+000	7	...........	0
	372	37.3	-1.28010E-001	6.90609E-006	0.00000E+000	-1.28023E-001	0.00000E+000	7	...........	0
	375	37.6	-1.25007E-001	7.14516E-006	0.00000E+000	-1.25023E-001	0.00000E+000	7	...........	0
	378	37.9	-1.22024E-001	7.26186E-006	0.00000E+000	-1.22023E-001	0.00000E+000	7	...........	0
	381	38.2	-1.19001E-001	7.37822E-006	0.00000E+000	-1.19023E-001	0.00000E+000	7	...........	0
	384	38.5	-1.16008E-001	7.43324E-006	0.00000E+000	-1.16023E-001	0.00000E+000	7	...........	0
	387	38.8	-1.13005E-001	7.42557E-006	0.00000E+000	-1.13023E-001	0.00000E+000	7	...........	0
	390	39.1	-1.10012E-001	7.68164E-006	0.00000E+000	-1.10023E-001	0.00000E+000	7	...........	0
	393	39.4	-1.07009E-001	7.70898E-006	0.00000E+000	-1.07022E-001	0.00000E+000	7	...........	0
	396	39.7	-1.04006E-001	7.93871E-006	0.00000E+000	-1.04022E-001	0.00000E+000	7	...........	0
	399	40	-1.01023E-001	8.05441E-006	0.00000E+000	-1.01022E-001	0.00000E+000	7	...........	0
	402	40.3	-9.80300E-002	8.17711E-006	0.00000E+000	-9.80221E-002	0.00000E+000	7	...........	0
	405	40.6	-9.50170E-002	8.33215E-006	0.00000E+000	-9.50219E-002	0.00000E+000	7	...........	0
	408	40.9	-9.20240E-002	8.40017E-006	0.00000E+000	-9.20218E-002	0.00000E+000	7	...........	0
	411	41.2	-8.90410E-002	8.40350E-006	0.00000E+000	-8.90217E-002	0.00000E+000	7	...........	0
	414	41.5	-8.59980E-002	8.35449E-006	0.00000E+000	-8.60216E-002	0.00000E+000	7	...........	0
	417	41.8	-8.30150E-002	8.51520E-006	0.00000E+000	-8.30214E-002	0.00000E+000	7	...........	0
	420	42.1	-8.00220E-002	8.66958E-006	0.00000E+000	-8.00213E-002	0.00000E+000	7	...........	0
	423	42.4	-7.69890E-002	8.88864E-006	0.00000E+000	-7.70212E-002	0.00000E+000	7	...........	0
	426	42.7	-7.40161E-002	8.81589E-006	0.00000E+000	-7.40211E-002	0.00000E+000	8	...........	0
	429	43	-7.10131E-002	8.93923E-006	0.00000E+000	-7.10210E-002	0.00000E+000	8	...........	0
	432	43.3	-6.80201E-002	9.16925E-006	0.00000E+000	-6.80208E-002	0.00000E+000	8	...........	0
	435	43.6	-6.49971E-002	9.13924E-006	0.00000E+000	-6.50207E-002	0.00000E+000	8	...........	0
	438	43.9	-6.20241E-002	9.24259E-006	0.00000E+000	-6.20206E-002	0.00000E+000	8	...........	0
	441	44.2	-5.90011E-002	9.65261E-006	0.00000E+000	-5.90205E-002	0.00000E+000	8	...........	0
	444	44.5	-5.59981E-002	9.76929E-006	0.00000E+000	-5.60203E-002	0.00000E+000	8	...........	0
	447	44.8	-5.30051E-002	9.84929E-006	0.00000E+000	-5.30202E-002	0.00000E+000	8	...........	0
	450	45.1	-5.00022E-002	9.90263E-006	0.00000E+000	-5.00201E-002	0.00000E+000	8	...........	0
	453	45.4	-4.70092E-002	1.01093E-005	0.00000E+000	-4.70200E-002	0.00000E+000	8	...........	0
	456	45.7	-4.40262E-002	1.02227E-005	0.00000E+000	-4.40199E-002	0.00000E+000	8	...........	0
	459	46	-4.10032E-002	1.04393E-005	0.00000E+000	-4.10197E-002	0.00000E+000	8	...........	0
	462	46.3	-3.80202E-002	1.04893E-005	0.00000E+000	-3.80196E-002	0.00000E+000	8	...........	0
	465	46.6	-3.50072E-002	1.07094E-005	0.00000E+000	-3.50195E-002	0.00000E+000	8	...........	0
	468	46.9	-3.19942E-002	1.08127E-005	0.00000E+000	-3.20194E-002	0.00000E+000	8	...........	0
	471	47.2	-2.90213E-002	1.11561E-005	0.00000E+000	-2.90192E-002	0.00000E+000	8	...........	0
	474	47.5	-2.60083E-002	1.13127E-005	0.00000E+000	-2.60191E-002	0.00000E+000	8	...........	0
	477	47.8	-2.29980E-002	1.12761E-005	0.00000E+000	-2.30190E-002	0.00000E+000	8	...........	0
	480	48.1	-1.99940E-002	1.13761E-005	0.00000E+000	-2.00189E-002	0.00000E+000	8	...........	0
	483	48.4	-1.70011E-002	1.14927E-005	0.00000E+000	-1.70187E-002	0.00000E+000	8	...........	0
	486	48.7	-1.39851E-002	1.16561E-005	0.00000E+000	-1.40186E-002	0.00000E+000	8	...........	0
	489	49	-1.10101E-002	1.17361E-005	0.00000E+000	-1.10185E-002	0.00000E+000	8	...........	0
	492	49.3	-8.00311E-003	1.19394E-005	0.00000E+000	-8.01838E-003	0.00000E+000	8	...........	0
	495	49.6	-5.00613E-003	1.20828E-005	0.00000E+000	-5.01826E-003	0.00000E+000	8	...........	0
	498	49.9	-2.01515E-003	1.22828E-005	0.00000E+000	-2.01814E-003	0.00000E+000	8	...........	0
	501	50.2	1.00085E-003	1.23528E-005	0.00000E+000	9.81987E-004	0.00000E+000	8	...........	0
	504	50.5	3.98782E-003	1.25261E-005	0.00000E+000	3.98211E-003	0.00000E+000	8	...........	0
	507	50.8	6.99281E-003	1.25295E-005	0.00000E+000	6.98223E-003	0.00000E+000	8	...........	0
	510	51.1	9.98579E-003	1.24028E-005	0.00000E+000	9.98235E-003	0.00000E+000	8	...........	0
	513	51.4	1.29928E-002	1.24861E-005	0.00000E+000	1.29825E-002	0.00000E+000	8	...........	0
	516	51.7	1.59928E-002	1.24795E-005	0.00000E+000	1.59826E-002	0.00000E+000	8	...........	0
	519	52	1.89757E-002	1.24595E-005	0.00000E+000	1.89827E-002	0.00000E+000	8	...........	0
	522	52.3	2.19897E-002	1.24828E-005	0.00000E+000	2.19828E-002	0.00000E+000	8	...........	0
	525	52.6	2.49757E-002	1.26595E-005	0.00000E+000	2.49830E-002	0.00000E+000	8	...........	0
	528	52.9	2.80055E-002	1.27995E-005	0.00000E+000	2.79831E-002	0.00000E+000	8	...........	0
	531	53.2	3.09985E-002	1.29928E-005	0.00000E+000	3.09832E-002	0.00000E+000	8	...........	0
	534	53.5	3.40115E-002	1.29662E-005	0.00000E+000	3.39833E-002	0.00000E+000	8	...........	0
	537	53.8	3.70044E-002	1.31129E-005	0.00000E+000	3.69835E-002	0.00000E+000	8	...........	0
	540	54.1	3.99874E-002	1.31895E-005	0.00000E+000	3.99836E-002	0.00000E+000	8	...........	0
	543	54.4	4.30104E-002	1.34095E-005	0.00000E+000	4.29837E-002	0.00000E+000	8	...........	0
	546	54.7	4.59834E-002	1.38062E-005	0.00000E+000	4.59838E-002	0.00000E+000	8	...........	0
	549	55	4.90164E-002	1.40063E-005	0.00000E+000	4.89840E-002	0.00000E+000	8	...........	0
	552	55.3	5.19994E-002	1.41329E-005	0.00000E+000	5.19841E-002	0.00000E+000	8	...........	0
	555	55.6	5.49823E-002	1.40363E-005	0.00000E+000	5.49842E-002	0.00000E+000	8	...........	0
	558	55.9	5.79953E-002	1.42263E-005	0.00000E+000	5.79843E-002	0.00000E+000	8	...........	0
	561	56.2	6.09983E-002	1.43029E-005	0.00000E+000	6.09844E-002	0.00000E+000	8	...........	0
	564	56.5	6.40113E-002	1.44496E-005	0.00000E+000	6.39846E-002	0.00000E+000	8	...........	0
	567	56.8	6.69943E-002	1.45430E-005	0.00000E+000	6.69847E-002	0.00000E+000	8	...........	0
	570	57.1	7.00073E-002	1.46663E-005	0.00000E+000	6.99848E-002	0.00000E+000	8	...........	0
	573	57.4	7.30003E-002	1.48763E-005	0.00000E+000	7.29849E-002	0.00000E+000	8	...........	0
	576	57.7	7.60033E-002	1.49763E-005	0.00000E+000	7.59851E-002	0.00000E+000	8	...........	0
	579	58	7.89962E-002	1.49263E-005	0.00000E+000	7.89852E-002	0.00000E+000	8	...........	0
	582	58.3	8.19992E-002	1.49063E-005	0.00000E+000	8.19853E-002	0.00000E+000	8	...........	0
	585	58.6	8.49922E-002	1.52397E-005	0.00000E+000	8.49854E-002	0.00000E+000	8	...........	0
	588	58.9	8.80052E-002	1.53330E-005	0.00000E+000	8.79855E-002	0.00000E+000	8	...........	0
	591	59.2	9.10082E-002	1.54030E-005	0.00000E+000	9.09857E-002	0.00000E+000	8	...........	0
	594	59.5	9.39912E-002	1.55197E-005	0.00000E+000	9.39858E-002	0.00000E+000	8	...........	0
	597	59.8	9.70042E-002	1.56164E-005	0.00000E+000	9.69859E-002	0.00000E+000	8	...........	0
	600	60.1	9.99871E-002	1.57964E-005	0.00000E+000	9.99860E-002	0.00000E+000	8	...........	0
	603	60.4	1.02980E-001	1.58097E-005	0.00000E+000	1.02986E-001	0.00000E+000	8	...........	0
	606	60.7	1.05983E-001	1.54930E-005	0.00000E+000	1.05986E-001	0.00000E+000	8	...........	0
	609	61	1.09006E-001	1.59997E-005	0.00000E+000	1.08986E-001	0.00000E+000	8	...........	0
	612	61.3	1.11979E-001	1.59931E-005	0.00000E+000	1.11987E-001	0.00000E+000	8	...........	0
	615	61.6	1.14992E-001	1.60764E-005	0.00000E+000	1.14987E-001	0.00000E+000	8	...........	0
	618	61.9	1.17985E-001	1.63197E-005	0.00000E+000	1.17987E-001	0.00000E+000	8	...........	0
	621	62.2	1.20998E-001	1.63731E-005	0.00000E+000	1.20987E-001	0.00000E+000	8	...........	0
	624	62.5	1.23991E-001	1.64231E-005	0.00000E+000	1.23987E-001	0.00000E+000	8	...........	0
	627	62.8	1.26984E-001	1.62564E-005	0.00000E+000	1.26987E-001	0.00000E+000	8	...........	0
	630	63.1	1.29977E-001	1.61464E-005	0.00000E+000	1.29987E-001	0.00000E+000	8	...........	0
	633	63.4	1.32980E-001	1.61897E-005	0.00000E+000	1.32987E-001	0.00000E+000	8	...........	0
	636	63.7	1.35993E-001	1.62497E-005	0.00000E+000	1.35988E-001	0.00000E+000	8	...........	0
	639	64	1.38986E-001	1.62464E-005	0.00000E+000	1.38988E-001	0.00000E+000	8	...........	0
	642	64.3	1.41999E-001	1.65564E-005	0.00000E+000	1.41988E-001	0.00000E+000	8	...........	0
	645	64.6	1.44962E-001	1.65831E-005	0.00000E+000	1.44988E-001	0.00000E+000	8	...........	0
	648	64.9	1.47985E-001	1.68631E-005	0.00000E+000	1.47988E-001	0.00000E+000	8	...........	0
	651	65.2	1.50978E-001	1.68798E-005	0.00000E+000	1.50988E-001	0.00000E+000	8	...........	0
	654	65.5	1.53981E-001	1.70531E-005	0.00000E+000	1.53988E-001	0.00000E+000	8	...........	0
	657	65.8	1.56994E-001	1.69131E-005	0.00000E+000	1.56988E-001	0.00000E+000	8	...........	0
	660	66.1	1.59987E-001	1.71431E-005	0.00000E+000	1.59988E-001	0.00000E+000	8	...........	0
	663	66.4	1.62980E-001	1.71431E-005	0.00000E+000	1.62989E-001	0.00000E+000	8	...........	0
	666	66.7	1.66003E-001	1.71765E-005	0.00000E+000	1.65989E-001	0.00000E+000	8	...........	0
	669	67	1.68996E-001	1.72898E-005	0.00000E+000	1.68989E-001	0.00000E+000	8	...........	0
	672	67.3	1.71979E-001	1.72365E-005	0.00000E+000	1.71989E-001	0.00000E+000	8	...........	0
	675	67.6	1.74992E-001	1.73898E-005	0.00000E+000	1.74989E-001	0.00000E+000	8	...........	0
	678	67.9	1.77965E-001	1.74965E-005	0.00000E+000	1.77989E-001	0.00000E+000	8	...........	0
	681	68.2	1.80978E-001	1.78065E-005	0.00000E+000	1.80989E-001	0.00000E+000	8	...........	0
	684	68.5	1.83981E-001	1.81665E-005	0.00000E+000	1.83989E-001	0.00000E+000	8	...........	0
	687	68.8	1.86974E-001	1.83566E-005	0.00000E+000	1.86990E-001	0.00000E+000	8	...........	0
	690	69.1	1.89977E-001	1.84732E-005	0.00000E+000	1.89990E-001	0.00000E+000	8	...........	0
	693	69.4	1.92990E-001	1.85966E-005	0.00000E+000	1.92990E-001	0.00000E+000	8	...........	0
	696	69.7	1.95983E-001	1.85332E-005	0.00000E+000	1.95990E-001	0.00000E+000	8	...........	0
	699	70	1.98986E-001	1.86332E-005	0.00000E+000	1.98990E-001	0.00000E+000	8	...........	0
	702	70.3	2.01989E-001	1.89533E-005	0.00000E+000	2.01990E-001	0.00000E+000	8	...........	0
	705	70.6	2.04972E-001	1.91399E-005	0.00000E+000	2.04990E-001	0.00000E+000	8	...........	0
	708	70.9	2.07975E-001	1.89799E-005	0.00000E+000	2.07990E-001	0.00000E+000	8	...........	0
	711	71.2	2.10988E-001	1.92200E-005	0.00000E+000	2.10991E-001	0.00000E+000	8	...........	0
	714	71.5	2.13991E-001	1.90833E-005	0.00000E+000	2.13991E-001	0.00000E+000	8	...........	0
	717	71.8	2.17004E-001	1.92133E-005	0.00000E+000	2.16991E-001	0.00000E+000	8	...........	0
	720	72.1	2.19977E-001	1.91999E-005	0.00000E+000	2.19991E-001	0.00000E+000	8	...........	0
	723	72.4	2.22970E-001	1.91366E-005	0.00000E+000	2.22991E-001	0.00000E+000	8	...........	0
	726	72.7	2.25983E-001	1.92900E-005	0.00000E+000	2.25991E-001	0.00000E+000	8	...........	0
	729	73	2.28976E-001	1.92133E-005	0.00000E+000	2.28991E-001	0.00000E+000	8	...........	0
	732	73.3	2.31958E-001	1.94233E-005	0.00000E+000	2.31991E-001	0.00000E+000	8	...........	0
	735	73.6	2.34982E-001	1.91466E-005	0.00000E+000	2.34992E-001	0.00000E+000	8	...........	0
	738	73.9	2.37974E-001	1.96333E-005	0.00000E+000	2.37992E-001	0.00000E+000	8	...........	0
	741	74.2	2.40977E-001	1.97833E-005	0.00000E+000	2.40992E-001	0.00000E+000	8	...........	0
	744	74.5	2.43980E-001	1.97500E-005	0.00000E+000	2.43992E-001	0.00000E+000	8	...........	0
	747	74.8	2.46963E-001	1.99633E-005	0.00000E+000	2.46992E-001	0.00000E+000	8	...........	0
	750	75.1	2.49966E-001	2.02967E-005	0.00000E+000	2.49992E-001	0.00000E+000	8	...........	0
	753	75.4	2.52969E-001	2.00833E-005	0.00000E+000	2.52992E-001	0.00000E+000	8	...........	0
	756	75.7	2.55942E-001	2.01333E-005	0.00000E+000	2.55992E-001	0.00000E+000	8	...........	0
	759	76	2.58955E-001	2.03600E-005	0.00000E+000	2.58993E-001	0.00000E+000	8	...........	0
	762	76.3	2.61928E-001	2.06267E-005	0.00000E+000	2.61993E-001	0.00000E+000	8	...........	0
	765	76.6	2.64921E-001	2.09234E-005	0.00000E+000	2.64993E-001	0.00000E+000	8	...........	0
	768	76.9	2.68155E-001	2.09901E-005	0.00000E+000	2.67993E-001	0.00000E+000	8	...........	0
	771	77.2	2.71158E-001	2.09467E-005	0.00000E+000	2.70993E-001	0.00000E+000	8	...........	0
	774	77.5	2.74061E-001	2.11201E-005	0.00000E+000	2.73993E-001	0.00000E+000	8	...........	0
	777	77.8	2.77064E-001	2.10701E-005	0.00000E+000	2.76993E-001	0.00000E+000	8	...........	0
	780	78.1	2.80067E-001	2.13768E-005	0.00000E+000	2.79993E-001	0.00000E+000	8	...........	0
	783	78.4	2.83070E-001	2.13734E-005	0.00000E+000	2.82993E-001	0.00000E+000	8	...........	0
	786	78.7	2.86173E-001	2.16501E-005	0.00000E+000	2.85994E-001	0.00000E+000	8	...........	0
	789	79	2.89176E-001	2.17135E-005	0.00000E+000	2.88994E-001	0.00000E+000	8	...........	0
	792	79.3	2.92079E-001	2.19135E-005	0.00000E+000	2.91994E-001	0.00000E+000	8	...........	0
	795	79.6	2.95182E-001	2.19035E-005	0.00000E+000	2.94994E-001	0.00000E+000	8	...........	0
	798	79.9	2.98085E-001	2.19435E-005	0.00000E+000	2.97994E-001	0.00000E+000	8	...........	0
	801	80.2	3.01088E-001	2.21435E-005	0.00000E+000	3.00994E-001	0.00000E+000	8	...........	0
	804	80.5	3.04091E-001	2.21335E-005	0.00000E+000	3.03994E-001	0.00000E+000	8	...........	0
	807	80.8	3.07094E-001	2.20435E-005	0.00000E+000	3.06994E-001	0.00000E+000	8	...........	0
	810	81.1	3.10197E-001	2.22035E-005	0.00000E+000	3.09995E-001	0.00000E+000	8	...........	0
	813	81.4	3.13100E-001	2.21935E-005	0.00000E+000	3.12995E-001	0.00000E+000	8	...........	0
	816	81.7	3.16103E-001	2.19735E-005	0.00000E+000	3.15995E-001	0.00000E+000	8	...........	0
	819	82	3.19206E-001	2.16168E-005	0.00000E+000	3.18995E-001	0.00000E+000	8	...........	0
	822	82.3	3.22209E-001	2.17568E-005	0.00000E+000	3.21995E-001	0.00000E+000	8	...........	0
	825	82.6	3.25112E-001	2.16535E-005	0.00000E+000	3.24995E-001	0.00000E+000	8	...........	0
	828	82.9	3.28115E-001	2.18001E-005	0.00000E+000	3.27995E-001	0.00000E+000	8	...........	0
	831	83.2	3.31118E-001	2.20401E-005	0.00000E+000	3.30995E-001	0.00000E+000	8	...........	0
	834	83.5	3.34221E-001	2.22302E-005	0.00000E+000	3.33996E-001	0.00000E+000	8	...........	0
	837	83.8	3.37124E-001	2.23635E-005	0.00000E+000	3.36996E-001	0.00000E+000	8	...........	0
	840	84.1	3.40227E-001	2.23202E-005	0.00000E+000	3.39996E-001	0.00000E+000	8	...........	0
	843	84.4	3.43130E-001	2.25435E-005	0.00000E+000	3.42996E-001	0.00000E+000	8	...........	0
	846	84.7	3.46233E-001	2.25502E-005	0.00000E+000	3.45996E-001	0.00000E+000	8	...........	0
	849	85	3.49136E-001	2.27202E-005	0.00000E+000	3.48996E-001	0.00000E+000	8	...........	0
	852	85.3	3.52239E-001	2.27802E-005	0.00000E+000	3.51996E-001	0.00000E+000	8	...........	0
	855	85.6	3.55242E-001	2.29102E-005	0.00000E+000	3.54996E-001	0.00000E+000	8	...........	0
	858	85.9	3.58044E-001	2.28902E-005	0.00000E+000	3.57997E-001	0.00000E+000	8	...........	0
	861	86.2	3.61148E-001	2.31136E-005	0.00000E+000	3.60997E-001	0.00000E+000	8	...........	0
	864	86.5	3.64151E-001	2.30969E-005	0.00000E+000	3.63997E-001	0.00000E+000	8	...........	0
	867	86.8	3.67053E-001	2.34969E-005	0.00000E+000	3.66997E-001	0.00000E+000	8	...........	0
	870	87.1	3.70157E-001	2.36236E-005	0.00000E+000	3.69997E-001	0.00000E+000	8	...........	0
	873	87.4	3.73160E-001	2.35536E-005	0.00000E+000	3.72997E-001	0.00000E+000	8	...........	0
	876	87.7	3.76162E-001	2.36503E-005	0.00000E+000	3.75997E-001	0.00000E+000	8	...........	0
	879	88	3.79166E-001	2.36436E-005	0.00000E+000	3.78997E-001	0.00000E+000	8	...........	0
	882	88.3	3.82169E-001	2.38503E-005	0.00000E+000	3.81998E-001	0.00000E+000	8	...........	0
	885	88.6	3.85171E-001	2.38203E-005	0.00000E+000	3.84998E-001	0.00000E+000	8	...........	0
	888	88.9	3.88174E-001	2.38503E-005	0.00000E+000	3.87998E-001	0.00000E+000	8	...........	0
	891	89.2	3.91177E-001	2.38736E-005	0.00000E+000	3.90998E-001	0.00000E+000	8	...........	0
	894	89.5	3.94180E-001	2.40236E-005	0.00000E+000	3.93998E-001	0.00000E+000	8	...........	0
	897	89.8	3.97183E-001	2.41970E-005	0.00000E+000	3.96998E-001	0.00000E+000	8	...........	0
	900	90.1	4.00186E-001	2.44203E-005	0.00000E+000	3.99998E-001	0.00000E+000	8	...........	0
	903	90.4	4.03189E-001	2.46870E-005	0.00000E+000	4.02998E-001	0.00000E+000	8	...........	0
	906	90.7	4.06192E-001	2.46437E-005	0.00000E+000	4.05999E-001	0.00000E+000	8	...........	0
	909	91	4.09195E-001	2.48337E-005	0.00000E+000	4.08999E-001	0.00000E+000	8	...........	0
	912	91.3	4.12198E-001	2.48170E-005	0.00000E+000	4.11999E-001	0.00000E+000	8	...........	0
	915	91.6	4.15201E-001	2.48470E-005	0.00000E+000	4.14999E-001	0.00000E+000	8	...........	0
	918	91.9	4.18204E-001	2.51270E-005	0.00000E+000	4.17999E-001	0.00000E+000	8	...........	0
	921	92.2	4.21207E-001	2.49570E-005	0.00000E+000	4.20999E-001	0.00000E+000	8	...........	0
	924	92.5	4.24310E-001	2.50437E-005	0.00000E+000	4.23999E-001	0.00000E+000	8	...........	0
	927	92.8	4.27113E-001	2.52204E-005	0.00000E+000	4.26999E-001	0.00000E+000	8	...........	0
	930	93.1	4.30116E-001	2.52437E-005	0.00000E+000	4.30000E-001	0.00000E+000	8	...........	0
	933	93.4	4.33219E-001	2.56904E-005	0.00000E+000	4.33000E-001	0.00000E+000	8	...........	0
	936	93.7	4.36122E-001	2.60204E-005	0.00000E+000	4.36000E-001	0.00000E+000	8	...........	0
	939	94	4.39225E-001	2.64871E-005	0.00000E+000	4.39000E-001	0.00000E+000	8	...........	0
	942	94.3	4.42228E-001	2.63371E-005	0.00000E+000	4.42000E-001	0.00000E+000	8	...........	0
	945	94.6	4.45131E-001	2.65138E-005	0.00000E+000	4.45000E-001	0.00000E+000	8	...........	0
	948	94.9	4.48134E-001	2.68071E-005	0.00000E+000	4.48000E-001	0.00000E+000	8	...........	0
	951	95.2	4.51237E-001	2.71138E-005	0.00000E+000	4.51000E-001	0.00000E+000	8	...........	0
	954	95.5	4.54140E-001	2.73138E-005	0.00000E+000	4.54001E-001	0.00000E+000	8	...........	0
	957	95.8	4.57143E-001	2.69705E-005	0.00000E+000	4.57001E-001	0.00000E+000	8	...........	0
	960	96.1	4.60146E-001	2.74839E-005	0.00000E+000	4.60001E-001	0.00000E+000	8	...........	0
	963	96.4	4.63249E-001	2.79306E-005	0.00000E+000	4.63001E-001	0.00000E+000	8	...........	0
	966	96.7	4.66252E-001	2.74772E-005	0.00000E+000	4.66001E-001	0.00000E+000	8	...........	0
	969	97	4.69155E-001	2.78105E-005	0.00000E+000	4.69001E-001	0.00000E+000	8	...........	0
	972	97.3	4.72258E-001	2.76705E-005	0.00000E+000	4.72001E-001	0.00000E+000	8	...........	0
	975	97.6	4.75161E-001	2.79906E-005	0.00000E+000	4.75001E-001	0.00000E+000	8	...........	0
	978	97.9	4.78164E-001	2.80772E-005	0.00000E+000	4.78001E-001	0.00000E+000	8	...........	0
	981	98.2	4.81167E-001	2.80272E-005	0.00000E+000	4.81002E-001	0.00000E+000	8	...........	0
	984	98.5	4.84270E-001	2.82472E-005	0.00000E+000	4.84002E-001	0.00000E+000	8	...........	0
	987	98.8	4.87173E-001	2.85773E-005	0.00000E+000	4.87002E-001	0.00000E+000	8	...........	0
	990	99.1	4.90276E-001	2.85773E-005	0.00000E+000	4.90002E-001	0.00000E+000	8	...........	0
	993	99.4	4.93179E-001	2.83639E-005	0.00000E+000	4.93002E-001	0.00000E+000	8	...........	0
	996	99.7	4.96082E-001	2.85073E-005	0.00000E+000	4.96002E-001	0.00000E+000	8	...........	0
	999	100	4.99085E-001	2.86639E-005	0.00000E+000	4.99002E-001	0.00000E+000	8	...........	0
	1002	100.3	5.02288E-001	2.85073E-005	0.00000E+000	5.02002E-001	0.00000E+000	8	...........	0
	1005	100.6	5.05191E-001	2.85806E-005	0.00000E+000	5.05003E-001	0.00000E+000	8	...........	0
	1008	100.9	5.08194E-001	2.88440E-005	0.00000E+000	5.08003E-001	0.00000E+000	8	...........	0
	1011	101.2	5.11197E-001	2.95107E-005	0.00000E+000	5.11003E-001	0.00000E+000	8	...........	0
	1014	101.5	5.14200E-001	2.97474E-005	0.00000E+000	5.14003E-001	0.00000E+000	8	...........	0
	1017	101.8	5.17203E-001	2.97374E-005	0.00000E+000	5.17003E-001	0.00000E+000	8	...........	0
	1020	102.1	5.20206E-001	2.98607E-005	0.00000E+000	5.20003E-001	0.00000E+000	8	...........	0
	1023	102.4	5.23209E-001	3.02207E-005	0.00000E+000	5.23003E-001	0.00000E+000	8	...........	0
	1026	102.7	5.26212E-001	3.01340E-005	0.00000E+000	5.26003E-001	0.00000E+000	8	...........	0
	1029	103	5.29215E-001	2.96473E-005	0.00000E+000	5.29004E-001	0.00000E+000	8	...........	0
	1032	103.3	5.32218E-001	2.99340E-005	0.00000E+000	5.32004E-001	0.00000E+000	8	...........	0
	1035	103.6	5.35121E-001	3.04607E-005	0.00000E+000	5.35004E-001	0.00000E+000	8	...........	0
	1038	103.9	5.38224E-001	3.06107E-005	0.00000E+000	5.38004E-001	0.00000E+000	8	...........	0
	1041	104.2	5.41227E-001	3.06641E-005	0.00000E+000	5.41004E-001	0.00000E+000	8	...........	0
	1044	104.5	5.44230E-001	3.10874E-005	0.00000E+000	5.44004E-001	0.00000E+000	8	...........	0
	1047	104.8	5.47133E-001	3.09408E-005	0.00000E+000	5.47004E-001	0.00000E+000	8	...........	0
	1050	105.1	5.50136E-001	3.04341E-005	0.00000E+000	5.50004E-001	0.00000E+000	8	...........	0
	1053	105.4	5.53139E-001	3.09241E-005	0.00000E+000	5.53005E-001	0.00000E+000	8	...........	0
	1056	105.7	5.56242E-001	3.08041E-005	0.00000E+000	5.56005E-001	0.00000E+000	8	...........	0
	1059	106	5.59145E-001	3.10774E-005	0.00000E+000	5.59005E-001	0.00000E+000	8	...........	0
	1062	106.3	5.62248E-001	3.15708E-005	0.00000E+000	5.62005E-001	0.00000E+000	8	...........	0
	1065	106.6	5.65251E-001	3.14208E-005	0.00000E+000	5.65005E-001	0.00000E+000	8	...........	0
	1068	106.9	5.68254E-001	3.10374E-005	0.00000E+000	5.68005E-001	0.00000E+000	8	...........	0
	1071	107.2	5.71257E-001	3.13175E-005	0.00000E+000	5.71005E-001	0.00000E+000	8	...........	0
	1074	107.5	5.74160E-001	3.13641E-005	0.00000E+000	5.74005E-001	0.00000E+000	8	...........	0
	1077	107.8	5.77263E-001	3.15841E-005	0.00000E+000	5.77006E-001	0.00000E+000	8	...........	0
	1080	108.1	5.80166E-001	3.15708E-005	0.00000E+000	5.80006E-001	0.00000E+000	8	...........	0
	1083	108.4	5.83269E-001	3.20108E-005	0.00000E+000	5.83006E-001	0.00000E+000	8	...........	0
	1086	108.7	5.86172E-001	3.18008E-005	0.00000E+000	5.86006E-001	0.00000E+000	8	...........	0
	1089	109	5.89275E-001	3.16675E-005	0.00000E+000	5.89006E-001	0.00000E+000	8	...........	0
	1092	109.3	5.92178E-001	3.17175E-005	0.00000E+000	5.92006E-001	0.00000E+000	8	...........	0
	1095	109.6	5.95281E-001	3.22942E-005	0.00000E+000	5.95006E-001	0.00000E+000	8	...........	0
	1098	109.9	5.98184E-001	3.25675E-005	0.00000E+000	5.98006E-001	0.00000E+000	8	...........	0
	1100	110.1	6.00186E-001	3.37310E-005	0.00000E+000	6.00006E-001	0.00000E+000	8	...........	0