File: LSV ZFO/ZFO_h200_light_reator2.DTA
EXPLAIN
TAG	LSV
TITLE	LABEL	Linear Sweep Voltammetry	Test &Identifier
DATE	LABEL	7/5/2024	Date
TIME	LABEL	18:10:10	Time
NOTES	NOTES	1	&Notes...

PSTAT	PSTAT	L3FNano	Potentiostat
VINIT	POTEN	-5.00000E-001	F	&Initial E (V)
VFINAL	POTEN	6.00000E-001	F	&Final E (V)
SCANRATE	QUANT	9.99998E+000	&Scan Rate (mV/s)
STEPSIZE	QUANT	1.00000E+000	St&ep Size (mV)
IMODE	SELECTOR	0	I/E Range &Mode
IRANGE	QUANT	1.00000E+001	&Max Current (mA)
AREA	QUANT	1.00000E+000	Electrode &Area (cm^2)
ELECTRODETYPE	SELECTOR	0	Electrode Type
STRIPPING	TOGGLE	F	Used for Stripping
POLARITY	TOGGLE	F	Signal Polarity
CONDIT	TWOPARAM	F	1.50000E+001	0.00000E+000	Conditionin&g	Time(s)	E(V)
DELAY	TWOPARAM	F	3.00000E+001	0.00000E+000	Init. De&lay	Time(s)	Stab.(mV/s)
EQDELAY	QUANT	5.00000E+000	Equil. &Time (s)
IRCOMP	SELECTOR	0	IRCom&p
PFCOR	QUANT	5.00000E+001	PF Corr. (ohm)
SAMPLINGMODE	SELECTOR	0	Sampling &Mode
EOC	QUANT	0	Open Circuit (V)
PSTATMODEL	IQUANT	48	Pstat Model
PSTATSECTION	LABEL	IFC1000-07082	Pstat Section
PSTATSERIALNO	LABEL	07082	Pstat Serial Number
CTRLMODE	IQUANT	1	Control Mode
IESTAB	IQUANT	2	I/E Stability
CASPEED	IQUANT	2	Control Amp Speed
CONVENTION	IQUANT	1	Current Convention
ICHRANGE	IQUANT	2	Ich Range
ICHRANGEMODE	TOGGLE	F	Ich Auto Range
ICHOFFSETENABLE	TOGGLE	F	Ich Offset Enable
ICHOFFSET	QUANT	0	Ich Offset (V)
ICHFILTER	IQUANT	3	Ich Filter
VCHRANGE	IQUANT	2	Vch Range
VCHRANGEMODE	TOGGLE	T	Vch Auto Range
VCHOFFSETENABLE	TOGGLE	F	Vch Offset Enable
VCHOFFSET	QUANT	0	Vch Offset (V)
VCHFILTER	IQUANT	3	Vch Filter
IERANGELOWERLIMIT	IQUANT	4	I/E Range Lower Limit
IERANGEMODE	TOGGLE	T	I/E AutoRange
IERANGE	IQUANT	11	I/E Range
ACHSELECT	IQUANT	4	Ach Select
CABLEID	IQUANT	14	Cable ID
DCCALDATE	LABEL	7/3/2024	DC Calibration Date
ACCALDATE	LABEL	7/3/2024	AC Calibration Date
FRAMEWORKVERSION	QUANT	6.24	Framework Version
INSTRUMENTVERSION	LABEL	3.28	Instrument Version
CURVE	TABLE	1101
	Pt	T	Vf	Im	Vu	Sig	Ach	IERange	Over	Cycle
	#	s	V vs. Ref.	A	V	V	V	#	bits	#
	0	0.1	-5.00010E-001	-8.04466E-006	0.00000E+000	-4.99988E-001	0.00000E+000	11	...........	0
	3	0.4	-4.97007E-001	-8.81534E-006	0.00000E+000	-4.96988E-001	0.00000E+000	8	...........	0
	6	0.7	-4.94104E-001	-8.35198E-006	0.00000E+000	-4.93988E-001	0.00000E+000	8	...........	0
	9	1	-4.91101E-001	-7.72093E-006	0.00000E+000	-4.90988E-001	0.00000E+000	7	...........	0
	12	1.3	-4.87998E-001	-7.35149E-006	0.00000E+000	-4.87988E-001	0.00000E+000	7	...........	0
	15	1.6	-4.84995E-001	-6.88470E-006	0.00000E+000	-4.84988E-001	0.00000E+000	7	...........	0
	18	1.9	-4.81992E-001	-6.57228E-006	0.00000E+000	-4.81988E-001	0.00000E+000	7	...........	0
	21	2.2	-4.78989E-001	-6.10248E-006	0.00000E+000	-4.78988E-001	0.00000E+000	7	...........	0
	24	2.5	-4.76086E-001	-5.74172E-006	0.00000E+000	-4.75987E-001	0.00000E+000	7	...........	0
	27	2.8	-4.72983E-001	-5.03619E-006	0.00000E+000	-4.72987E-001	0.00000E+000	7	...........	0
	30	3.1	-4.70080E-001	-4.62774E-006	0.00000E+000	-4.69987E-001	0.00000E+000	7	...........	0
	33	3.4	-4.67077E-001	-4.46403E-006	0.00000E+000	-4.66987E-001	0.00000E+000	7	...........	0
	36	3.7	-4.63974E-001	-3.98957E-006	0.00000E+000	-4.63987E-001	0.00000E+000	7	...........	0
	39	4	-4.60971E-001	-4.03425E-006	0.00000E+000	-4.60987E-001	0.00000E+000	7	...........	0
	42	4.3	-4.57868E-001	-3.56412E-006	0.00000E+000	-4.57987E-001	0.00000E+000	7	...........	0
	45	4.6	-4.55065E-001	-3.50210E-006	0.00000E+000	-4.54987E-001	0.00000E+000	7	...........	0
	48	4.9	-4.51962E-001	-3.08399E-006	0.00000E+000	-4.51987E-001	0.00000E+000	7	...........	0
	51	5.2	-4.49059E-001	-2.75123E-006	0.00000E+000	-4.48986E-001	0.00000E+000	7	...........	0
	54	5.5	-4.46056E-001	-2.53650E-006	0.00000E+000	-4.45986E-001	0.00000E+000	7	...........	0
	57	5.8	-4.43053E-001	-2.38546E-006	0.00000E+000	-4.42986E-001	0.00000E+000	7	...........	0
	60	6.1	-4.40050E-001	-2.28443E-006	0.00000E+000	-4.39986E-001	0.00000E+000	7	...........	0
	63	6.4	-4.37047E-001	-2.08071E-006	0.00000E+000	-4.36986E-001	0.00000E+000	7	...........	0
	66	6.7	-4.34044E-001	-1.90600E-006	0.00000E+000	-4.33986E-001	0.00000E+000	7	...........	0
	69	7	-4.31041E-001	-1.74895E-006	0.00000E+000	-4.30986E-001	0.00000E+000	7	...........	0
	72	7.3	-4.27938E-001	-1.59558E-006	0.00000E+000	-4.27986E-001	0.00000E+000	7	...........	0
	75	7.6	-4.25035E-001	-1.46688E-006	0.00000E+000	-4.24985E-001	0.00000E+000	7	...........	0
	78	7.9	-4.22032E-001	-1.27616E-006	0.00000E+000	-4.21985E-001	0.00000E+000	7	...........	0
	81	8.2	-4.19029E-001	-1.32850E-006	0.00000E+000	-4.18985E-001	0.00000E+000	7	...........	0
	84	8.5	-4.16026E-001	-1.14212E-006	0.00000E+000	-4.15985E-001	0.00000E+000	7	...........	0
	87	8.8	-4.12923E-001	-1.04543E-006	0.00000E+000	-4.12985E-001	0.00000E+000	7	...........	0
	90	9.1	-4.10020E-001	-7.47345E-007	0.00000E+000	-4.09985E-001	0.00000E+000	7	...........	0
	93	9.4	-4.07117E-001	-6.30646E-007	0.00000E+000	-4.06985E-001	0.00000E+000	7	...........	0
	96	9.7	-4.04014E-001	-7.45344E-007	0.00000E+000	-4.03985E-001	0.00000E+000	7	...........	0
	99	10	-4.01011E-001	-6.07639E-007	0.00000E+000	-4.00984E-001	0.00000E+000	7	...........	0
	102	10.3	-3.98008E-001	-3.53236E-007	0.00000E+000	-3.97984E-001	0.00000E+000	7	...........	0
	105	10.6	-3.95005E-001	-2.51208E-007	0.00000E+000	-3.94984E-001	0.00000E+000	7	...........	0
	108	10.9	-3.92002E-001	-2.92553E-007	0.00000E+000	-3.91984E-001	0.00000E+000	7	...........	0
	111	11.2	-3.88999E-001	-4.23589E-007	0.00000E+000	-3.88984E-001	0.00000E+000	7	...........	0
	114	11.5	-3.85996E-001	-1.68519E-007	0.00000E+000	-3.85984E-001	0.00000E+000	7	...........	0
	117	11.8	-3.82993E-001	-1.99194E-007	0.00000E+000	-3.82984E-001	0.00000E+000	7	...........	0
	120	12.1	-3.79990E-001	1.59571E-007	0.00000E+000	-3.79984E-001	0.00000E+000	7	...........	0
	123	12.4	-3.77087E-001	2.66267E-007	0.00000E+000	-3.76983E-001	0.00000E+000	7	...........	0
	126	12.7	-3.73984E-001	2.35259E-007	0.00000E+000	-3.73983E-001	0.00000E+000	7	...........	0
	129	13	-3.70981E-001	5.37342E-007	0.00000E+000	-3.70983E-001	0.00000E+000	7	...........	0
	132	13.3	-3.67978E-001	4.12974E-007	0.00000E+000	-3.67983E-001	0.00000E+000	7	...........	0
	135	13.6	-3.65075E-001	3.93636E-007	0.00000E+000	-3.64983E-001	0.00000E+000	7	...........	0
	138	13.9	-3.61972E-001	9.25528E-008	0.00000E+000	-3.61983E-001	0.00000E+000	7	...........	0
	141	14.2	-3.59069E-001	-2.37871E-007	0.00000E+000	-3.58983E-001	0.00000E+000	7	...........	0
	144	14.5	-3.55966E-001	1.39566E-007	0.00000E+000	-3.55983E-001	0.00000E+000	7	...........	0
	147	14.8	-3.52963E-001	3.86634E-007	0.00000E+000	-3.52982E-001	0.00000E+000	7	...........	0
	150	15.1	-3.49960E-001	5.33341E-007	0.00000E+000	-3.49982E-001	0.00000E+000	7	...........	0
	153	15.4	-3.46957E-001	6.21365E-007	0.00000E+000	-3.46982E-001	0.00000E+000	7	...........	0
	156	15.7	-3.43954E-001	3.91968E-007	0.00000E+000	-3.43982E-001	0.00000E+000	7	...........	0
	159	16	-3.41051E-001	6.42371E-007	0.00000E+000	-3.40982E-001	0.00000E+000	7	...........	0
	162	16.3	-3.38048E-001	7.20059E-007	0.00000E+000	-3.37982E-001	0.00000E+000	7	...........	0
	165	16.6	-3.35045E-001	9.84131E-007	0.00000E+000	-3.34982E-001	0.00000E+000	7	...........	0
	168	16.9	-3.32042E-001	1.08849E-006	0.00000E+000	-3.31982E-001	0.00000E+000	7	...........	0
	171	17.2	-3.28939E-001	1.22520E-006	0.00000E+000	-3.28982E-001	0.00000E+000	7	...........	0
	174	17.5	-3.26036E-001	1.27588E-006	0.00000E+000	-3.25981E-001	0.00000E+000	7	...........	0
	177	17.8	-3.23033E-001	1.29155E-006	0.00000E+000	-3.22981E-001	0.00000E+000	7	...........	0
	180	18.1	-3.20030E-001	1.04281E-006	0.00000E+000	-3.19981E-001	0.00000E+000	7	...........	0
	183	18.4	-3.16927E-001	1.34356E-006	0.00000E+000	-3.16981E-001	0.00000E+000	7	...........	0
	186	18.7	-3.14024E-001	8.98441E-007	0.00000E+000	-3.13981E-001	0.00000E+000	7	...........	0
	189	19	-3.10921E-001	9.72795E-007	0.00000E+000	-3.10981E-001	0.00000E+000	7	...........	0
	192	19.3	-3.08119E-001	1.13951E-006	0.00000E+000	-3.07981E-001	0.00000E+000	7	...........	0
	195	19.6	-3.05015E-001	1.31956E-006	0.00000E+000	-3.04981E-001	0.00000E+000	7	...........	0
	198	19.9	-3.02013E-001	1.24520E-006	0.00000E+000	-3.01980E-001	0.00000E+000	7	...........	0
	201	20.2	-2.98909E-001	1.21486E-006	0.00000E+000	-2.98980E-001	0.00000E+000	7	...........	0
	204	20.5	-2.95906E-001	9.10778E-007	0.00000E+000	-2.95980E-001	0.00000E+000	7	...........	0
	207	20.8	-2.93004E-001	1.39158E-006	0.00000E+000	-2.92980E-001	0.00000E+000	7	...........	0
	210	21.1	-2.90001E-001	1.28855E-006	0.00000E+000	-2.89980E-001	0.00000E+000	7	...........	0
	213	21.4	-2.86998E-001	1.73267E-006	0.00000E+000	-2.86980E-001	0.00000E+000	7	...........	0
	216	21.7	-2.83995E-001	2.00041E-006	0.00000E+000	-2.83980E-001	0.00000E+000	7	...........	0
	219	22	-2.80992E-001	1.94073E-006	0.00000E+000	-2.80980E-001	0.00000E+000	7	...........	0
	222	22.3	-2.77888E-001	1.70866E-006	0.00000E+000	-2.77979E-001	0.00000E+000	7	...........	0
	225	22.6	-2.74986E-001	1.64631E-006	0.00000E+000	-2.74979E-001	0.00000E+000	7	...........	0
	228	22.9	-2.71983E-001	1.38457E-006	0.00000E+000	-2.71979E-001	0.00000E+000	7	...........	0
	231	23.2	-2.68980E-001	1.10483E-006	0.00000E+000	-2.68979E-001	0.00000E+000	7	...........	0
	234	23.5	-2.65977E-001	9.61458E-007	0.00000E+000	-2.65979E-001	0.00000E+000	7	...........	0
	237	23.8	-2.62974E-001	1.07149E-006	0.00000E+000	-2.62979E-001	0.00000E+000	7	...........	0
	240	24.1	-2.59971E-001	9.49121E-007	0.00000E+000	-2.59979E-001	0.00000E+000	7	...........	0
	243	24.4	-2.56968E-001	4.51318E-007	0.00000E+000	-2.56979E-001	0.00000E+000	7	...........	0
	246	24.7	-2.53965E-001	5.36341E-007	0.00000E+000	-2.53978E-001	0.00000E+000	7	...........	0
	249	25	-2.50962E-001	7.11390E-007	0.00000E+000	-2.50978E-001	0.00000E+000	7	...........	0
	252	25.3	-2.47959E-001	6.11362E-007	0.00000E+000	-2.47978E-001	0.00000E+000	7	...........	0
	255	25.6	-2.44956E-001	6.52373E-007	0.00000E+000	-2.44978E-001	0.00000E+000	7	...........	0
	258	25.9	-2.41913E-001	5.57347E-007	0.00000E+000	-2.41978E-001	0.00000E+000	7	...........	0
	261	26.2	-2.38910E-001	5.68684E-007	0.00000E+000	-2.38978E-001	0.00000E+000	7	...........	0
	264	26.5	-2.35897E-001	1.46126E-006	0.00000E+000	-2.35978E-001	0.00000E+000	7	...........	0
	267	26.8	-2.32884E-001	1.24887E-006	0.00000E+000	-2.32978E-001	0.00000E+000	7	...........	0
	270	27.1	-2.29911E-001	9.06110E-007	0.00000E+000	-2.29977E-001	0.00000E+000	7	...........	0
	273	27.4	-2.26888E-001	8.84437E-007	0.00000E+000	-2.26977E-001	0.00000E+000	7	...........	0
	276	27.7	-2.23875E-001	1.06649E-006	0.00000E+000	-2.23977E-001	0.00000E+000	7	...........	0
	279	28	-2.20902E-001	7.94746E-007	0.00000E+000	-2.20977E-001	0.00000E+000	7	...........	0
	282	28.3	-2.17899E-001	8.09750E-007	0.00000E+000	-2.17977E-001	0.00000E+000	7	...........	0
	285	28.6	-2.14946E-001	7.41731E-007	0.00000E+000	-2.14977E-001	0.00000E+000	7	...........	0
	288	28.9	-2.11943E-001	1.51494E-006	0.00000E+000	-2.11977E-001	0.00000E+000	7	...........	0
	291	29.2	-2.08940E-001	1.11183E-006	0.00000E+000	-2.08977E-001	0.00000E+000	7	...........	0
	294	29.5	-2.05927E-001	1.26921E-006	0.00000E+000	-2.05976E-001	0.00000E+000	7	...........	0
	297	29.8	-2.02934E-001	1.72167E-006	0.00000E+000	-2.02976E-001	0.00000E+000	7	...........	0
	300	30.1	-1.99961E-001	1.29922E-006	0.00000E+000	-1.99976E-001	0.00000E+000	7	...........	0
	303	30.4	-1.96938E-001	1.31089E-006	0.00000E+000	-1.96976E-001	0.00000E+000	7	...........	0
	306	30.7	-1.93945E-001	1.07316E-006	0.00000E+000	-1.93976E-001	0.00000E+000	7	...........	0
	309	31	-1.90942E-001	1.30455E-006	0.00000E+000	-1.90976E-001	0.00000E+000	7	...........	0
	312	31.3	-1.87889E-001	1.34823E-006	0.00000E+000	-1.87976E-001	0.00000E+000	7	...........	0
	315	31.6	-1.84886E-001	1.56062E-006	0.00000E+000	-1.84976E-001	0.00000E+000	7	...........	0
	318	31.9	-1.81903E-001	1.91305E-006	0.00000E+000	-1.81975E-001	0.00000E+000	7	...........	0
	321	32.2	-1.78930E-001	3.12972E-006	0.00000E+000	-1.78975E-001	0.00000E+000	7	...........	0
	324	32.5	-1.75928E-001	3.39513E-006	0.00000E+000	-1.75975E-001	0.00000E+000	7	...........	0
	327	32.8	-1.72925E-001	3.06770E-006	0.00000E+000	-1.72975E-001	0.00000E+000	7	...........	0
	330	33.1	-1.69922E-001	3.09504E-006	0.00000E+000	-1.69975E-001	0.00000E+000	7	...........	0
	333	33.4	-1.66969E-001	2.89099E-006	0.00000E+000	-1.67025E-001	0.00000E+000	7	...........	0
	336	33.7	-1.63966E-001	3.05137E-006	0.00000E+000	-1.64025E-001	0.00000E+000	7	...........	0
	339	34	-1.61013E-001	3.51216E-006	0.00000E+000	-1.61025E-001	0.00000E+000	7	...........	0
	342	34.3	-1.58010E-001	4.04064E-006	0.00000E+000	-1.58025E-001	0.00000E+000	7	...........	0
	345	34.6	-1.55007E-001	3.83892E-006	0.00000E+000	-1.55024E-001	0.00000E+000	7	...........	0
	348	34.9	-1.52034E-001	3.12105E-006	0.00000E+000	-1.52024E-001	0.00000E+000	7	...........	0
	351	35.2	-1.49011E-001	2.94234E-006	0.00000E+000	-1.49024E-001	0.00000E+000	7	...........	0
	354	35.5	-1.46018E-001	3.69454E-006	0.00000E+000	-1.46024E-001	0.00000E+000	7	...........	0
	357	35.8	-1.43025E-001	4.48576E-006	0.00000E+000	-1.43024E-001	0.00000E+000	7	...........	0
	360	36.1	-1.40022E-001	4.42408E-006	0.00000E+000	-1.40024E-001	0.00000E+000	7	...........	0
	363	36.4	-1.37019E-001	4.69315E-006	0.00000E+000	-1.37024E-001	0.00000E+000	7	...........	0
	366	36.7	-1.34016E-001	4.89421E-006	0.00000E+000	-1.34024E-001	0.00000E+000	7	...........	0
	369	37	-1.31023E-001	4.71682E-006	0.00000E+000	-1.31023E-001	0.00000E+000	7	...........	0
	372	37.3	-1.28000E-001	5.23763E-006	0.00000E+000	-1.28023E-001	0.00000E+000	7	...........	0
	375	37.6	-1.25037E-001	5.02324E-006	0.00000E+000	-1.25023E-001	0.00000E+000	7	...........	0
	378	37.9	-1.22034E-001	5.13594E-006	0.00000E+000	-1.22023E-001	0.00000E+000	7	...........	0
	381	38.2	-1.19021E-001	5.16528E-006	0.00000E+000	-1.19023E-001	0.00000E+000	7	...........	0
	384	38.5	-1.15978E-001	5.43235E-006	0.00000E+000	-1.16023E-001	0.00000E+000	7	...........	0
	387	38.8	-1.13015E-001	5.34500E-006	0.00000E+000	-1.13023E-001	0.00000E+000	7	...........	0
	390	39.1	-1.10042E-001	4.91688E-006	0.00000E+000	-1.10023E-001	0.00000E+000	7	...........	0
	393	39.4	-1.07009E-001	4.65881E-006	0.00000E+000	-1.07022E-001	0.00000E+000	7	...........	0
	396	39.7	-1.03996E-001	4.53111E-006	0.00000E+000	-1.04022E-001	0.00000E+000	7	...........	0
	399	40	-1.01023E-001	4.92788E-006	0.00000E+000	-1.01022E-001	0.00000E+000	7	...........	0
	402	40.3	-9.79799E-002	3.61952E-006	0.00000E+000	-9.80221E-002	0.00000E+000	7	...........	0
	405	40.6	-9.50070E-002	3.53617E-006	0.00000E+000	-9.50219E-002	0.00000E+000	7	...........	0
	408	40.9	-9.20340E-002	4.61646E-006	0.00000E+000	-9.20218E-002	0.00000E+000	7	...........	0
	411	41.2	-8.90610E-002	4.26103E-006	0.00000E+000	-8.90217E-002	0.00000E+000	7	...........	0
	414	41.5	-8.60280E-002	3.86259E-006	0.00000E+000	-8.60216E-002	0.00000E+000	7	...........	0
	417	41.8	-8.30150E-002	4.17101E-006	0.00000E+000	-8.30214E-002	0.00000E+000	7	...........	0
	420	42.1	-8.00420E-002	4.68548E-006	0.00000E+000	-8.00213E-002	0.00000E+000	7	...........	0
	423	42.4	-7.70090E-002	4.41574E-006	0.00000E+000	-7.70212E-002	0.00000E+000	7	...........	0
	426	42.7	-7.40261E-002	5.18562E-006	0.00000E+000	-7.40211E-002	0.00000E+000	7	...........	0
	429	43	-7.10031E-002	4.62080E-006	0.00000E+000	-7.10210E-002	0.00000E+000	7	...........	0
	432	43.3	-6.80201E-002	5.64208E-006	0.00000E+000	-6.80208E-002	0.00000E+000	7	...........	0
	435	43.6	-6.50371E-002	5.03424E-006	0.00000E+000	-6.50207E-002	0.00000E+000	7	...........	0
	438	43.9	-6.19841E-002	4.92721E-006	0.00000E+000	-6.20206E-002	0.00000E+000	7	...........	0
	441	44.2	-5.89911E-002	4.94088E-006	0.00000E+000	-5.90205E-002	0.00000E+000	7	...........	0
	444	44.5	-5.59981E-002	5.18695E-006	0.00000E+000	-5.60203E-002	0.00000E+000	7	...........	0
	447	44.8	-5.30452E-002	5.54772E-006	0.00000E+000	-5.30202E-002	0.00000E+000	7	...........	0
	450	45.1	-5.00222E-002	6.80940E-006	0.00000E+000	-5.00201E-002	0.00000E+000	7	...........	0
	453	45.4	-4.70192E-002	6.96611E-006	0.00000E+000	-4.70200E-002	0.00000E+000	7	...........	0
	456	45.7	-4.40062E-002	7.31120E-006	0.00000E+000	-4.40199E-002	0.00000E+000	7	...........	0
	459	46	-4.10132E-002	8.13776E-006	0.00000E+000	-4.10197E-002	0.00000E+000	7	...........	0
	462	46.3	-3.80102E-002	1.00766E-005	0.00000E+000	-3.80196E-002	0.00000E+000	7	...........	0
	465	46.6	-3.50072E-002	9.76221E-006	0.00000E+000	-3.50195E-002	0.00000E+000	7	...........	0
	468	46.9	-3.20243E-002	1.01573E-005	0.00000E+000	-3.20194E-002	0.00000E+000	7	.....h.....	0
	471	47.2	-2.90113E-002	1.10660E-005	0.00000E+000	-2.90192E-002	0.00000E+000	8	...........	0
	474	47.5	-2.60083E-002	1.09794E-005	0.00000E+000	-2.60191E-002	0.00000E+000	8	...........	0
	477	47.8	-2.29910E-002	1.16261E-005	0.00000E+000	-2.30190E-002	0.00000E+000	8	...........	0
	480	48.1	-2.00111E-002	1.22428E-005	0.00000E+000	-2.00189E-002	0.00000E+000	8	...........	0
	483	48.4	-1.70001E-002	1.27395E-005	0.00000E+000	-1.70187E-002	0.00000E+000	8	...........	0
	486	48.7	-1.40141E-002	1.30062E-005	0.00000E+000	-1.40186E-002	0.00000E+000	8	...........	0
	489	49	-1.10061E-002	1.33562E-005	0.00000E+000	-1.10185E-002	0.00000E+000	8	...........	0
	492	49.3	-8.02614E-003	1.46163E-005	0.00000E+000	-8.01838E-003	0.00000E+000	8	...........	0
	495	49.6	-5.04217E-003	1.51563E-005	0.00000E+000	-5.01826E-003	0.00000E+000	8	...........	0
	498	49.9	-2.01716E-003	1.57964E-005	0.00000E+000	-2.01814E-003	0.00000E+000	8	...........	0
	501	50.2	1.00385E-003	1.57764E-005	0.00000E+000	9.81987E-004	0.00000E+000	8	...........	0
	504	50.5	3.99283E-003	1.54130E-005	0.00000E+000	3.98211E-003	0.00000E+000	8	...........	0
	507	50.8	6.98280E-003	1.66798E-005	0.00000E+000	6.98223E-003	0.00000E+000	8	...........	0
	510	51.1	9.95676E-003	1.72731E-005	0.00000E+000	9.98235E-003	0.00000E+000	8	...........	0
	513	51.4	1.29868E-002	1.85166E-005	0.00000E+000	1.29825E-002	0.00000E+000	8	...........	0
	516	51.7	1.59707E-002	1.87733E-005	0.00000E+000	1.59826E-002	0.00000E+000	8	...........	0
	519	52	1.89717E-002	1.88733E-005	0.00000E+000	1.89827E-002	0.00000E+000	8	...........	0
	522	52.3	2.19967E-002	2.03867E-005	0.00000E+000	2.19828E-002	0.00000E+000	8	...........	0
	525	52.6	2.49717E-002	2.16101E-005	0.00000E+000	2.49830E-002	0.00000E+000	8	...........	0
	528	52.9	2.80055E-002	2.27202E-005	0.00000E+000	2.79831E-002	0.00000E+000	8	...........	0
	531	53.2	3.09785E-002	2.37036E-005	0.00000E+000	3.09832E-002	0.00000E+000	8	...........	0
	534	53.5	3.40115E-002	2.48170E-005	0.00000E+000	3.39833E-002	0.00000E+000	8	...........	0
	537	53.8	3.69844E-002	2.53504E-005	0.00000E+000	3.69835E-002	0.00000E+000	8	...........	0
	540	54.1	3.99774E-002	2.61338E-005	0.00000E+000	3.99836E-002	0.00000E+000	8	...........	0
	543	54.4	4.29804E-002	2.72205E-005	0.00000E+000	4.29837E-002	0.00000E+000	8	...........	0
	546	54.7	4.59634E-002	2.75905E-005	0.00000E+000	4.59838E-002	0.00000E+000	8	...........	0
	549	55	4.89864E-002	2.77205E-005	0.00000E+000	4.89840E-002	0.00000E+000	8	...........	0
	552	55.3	5.19994E-002	2.85339E-005	0.00000E+000	5.19841E-002	0.00000E+000	8	...........	0
	555	55.6	5.49623E-002	2.88340E-005	0.00000E+000	5.49842E-002	0.00000E+000	8	...........	0
	558	55.9	5.79753E-002	2.86706E-005	0.00000E+000	5.79843E-002	0.00000E+000	8	...........	0
	561	56.2	6.09883E-002	2.94007E-005	0.00000E+000	6.09844E-002	0.00000E+000	8	...........	0
	564	56.5	6.40013E-002	3.01007E-005	0.00000E+000	6.39846E-002	0.00000E+000	8	...........	0
	567	56.8	6.69843E-002	3.04741E-005	0.00000E+000	6.69847E-002	0.00000E+000	8	...........	0
	570	57.1	6.99572E-002	3.16642E-005	0.00000E+000	6.99848E-002	0.00000E+000	8	...........	0
	573	57.4	7.29602E-002	3.25009E-005	0.00000E+000	7.29849E-002	0.00000E+000	8	...........	0
	576	57.7	7.59832E-002	3.31276E-005	0.00000E+000	7.59851E-002	0.00000E+000	8	...........	0
	579	58	7.90063E-002	3.41843E-005	0.00000E+000	7.89852E-002	0.00000E+000	8	...........	0
	582	58.3	8.19592E-002	3.53777E-005	0.00000E+000	8.19853E-002	0.00000E+000	8	...........	0
	585	58.6	8.49722E-002	3.71312E-005	0.00000E+000	8.49854E-002	0.00000E+000	8	...........	0
	588	58.9	8.79652E-002	3.84713E-005	0.00000E+000	8.79855E-002	0.00000E+000	8	...........	0
	591	59.2	9.10182E-002	3.87813E-005	0.00000E+000	9.09857E-002	0.00000E+000	8	...........	0
	594	59.5	9.40012E-002	3.94480E-005	0.00000E+000	9.39858E-002	0.00000E+000	8	...........	0
	597	59.8	9.69641E-002	4.00347E-005	0.00000E+000	9.69859E-002	0.00000E+000	8	...........	0
	600	60.1	9.99571E-002	4.07781E-005	0.00000E+000	9.99860E-002	0.00000E+000	8	...........	0
	603	60.4	1.02980E-001	4.14982E-005	0.00000E+000	1.02986E-001	0.00000E+000	8	...........	0
	606	60.7	1.05963E-001	4.26949E-005	0.00000E+000	1.05986E-001	0.00000E+000	8	...........	0
	609	61	1.08986E-001	4.38617E-005	0.00000E+000	1.08986E-001	0.00000E+000	8	...........	0
	612	61.3	1.11999E-001	4.43850E-005	0.00000E+000	1.11987E-001	0.00000E+000	8	...........	0
	615	61.6	1.14972E-001	4.47884E-005	0.00000E+000	1.14987E-001	0.00000E+000	8	...........	0
	618	61.9	1.17955E-001	4.62218E-005	0.00000E+000	1.17987E-001	0.00000E+000	8	...........	0
	621	62.2	1.20958E-001	4.67119E-005	0.00000E+000	1.20987E-001	0.00000E+000	8	...........	0
	624	62.5	1.23941E-001	4.84520E-005	0.00000E+000	1.23987E-001	0.00000E+000	8	...........	0
	627	62.8	1.26944E-001	4.99921E-005	0.00000E+000	1.26987E-001	0.00000E+000	8	...........	0
	630	63.1	1.29967E-001	5.19789E-005	0.00000E+000	1.29987E-001	0.00000E+000	8	...........	0
	633	63.4	1.32980E-001	5.22856E-005	0.00000E+000	1.32987E-001	0.00000E+000	8	...........	0
	636	63.7	1.35933E-001	5.34423E-005	0.00000E+000	1.35988E-001	0.00000E+000	8	...........	0
	639	64	1.38996E-001	5.31757E-005	0.00000E+000	1.38988E-001	0.00000E+000	8	...........	0
	642	64.3	1.41979E-001	5.45457E-005	0.00000E+000	1.41988E-001	0.00000E+000	8	...........	0
	645	64.6	1.44972E-001	5.62425E-005	0.00000E+000	1.44988E-001	0.00000E+000	8	...........	0
	648	64.9	1.47955E-001	5.64759E-005	0.00000E+000	1.47988E-001	0.00000E+000	8	...........	0
	651	65.2	1.50938E-001	5.74460E-005	0.00000E+000	1.50988E-001	0.00000E+000	8	...........	0
	654	65.5	1.53961E-001	5.86660E-005	0.00000E+000	1.53988E-001	0.00000E+000	8	...........	0
	657	65.8	1.56994E-001	6.03062E-005	0.00000E+000	1.56988E-001	0.00000E+000	8	...........	0
	660	66.1	1.59967E-001	6.12696E-005	0.00000E+000	1.59988E-001	0.00000E+000	8	...........	0
	663	66.4	1.62970E-001	6.17229E-005	0.00000E+000	1.62989E-001	0.00000E+000	8	...........	0
	666	66.7	1.65973E-001	6.20096E-005	0.00000E+000	1.65989E-001	0.00000E+000	8	...........	0
	669	67	1.68966E-001	6.27397E-005	0.00000E+000	1.68989E-001	0.00000E+000	8	...........	0
	672	67.3	1.71979E-001	6.35230E-005	0.00000E+000	1.71989E-001	0.00000E+000	8	...........	0
	675	67.6	1.74942E-001	6.37931E-005	0.00000E+000	1.74989E-001	0.00000E+000	8	...........	0
	678	67.9	1.77965E-001	6.50732E-005	0.00000E+000	1.77989E-001	0.00000E+000	8	...........	0
	681	68.2	1.80938E-001	6.55832E-005	0.00000E+000	1.80989E-001	0.00000E+000	8	...........	0
	684	68.5	1.84021E-001	6.63199E-005	0.00000E+000	1.83989E-001	0.00000E+000	8	...........	0
	687	68.8	1.86974E-001	6.67666E-005	0.00000E+000	1.86990E-001	0.00000E+000	8	...........	0
	690	69.1	1.89967E-001	6.58399E-005	0.00000E+000	1.89990E-001	0.00000E+000	8	...........	0
	693	69.4	1.92930E-001	6.81167E-005	0.00000E+000	1.92990E-001	0.00000E+000	8	...........	0
	696	69.7	1.95973E-001	6.78167E-005	0.00000E+000	1.95990E-001	0.00000E+000	8	...........	0
	699	70	1.98946E-001	6.72033E-005	0.00000E+000	1.98990E-001	0.00000E+000	8	...........	0
	702	70.3	2.01939E-001	6.77567E-005	0.00000E+000	2.01990E-001	0.00000E+000	8	...........	0
	705	70.6	2.04942E-001	6.81334E-005	0.00000E+000	2.04990E-001	0.00000E+000	8	...........	0
	708	70.9	2.07975E-001	6.85534E-005	0.00000E+000	2.07990E-001	0.00000E+000	8	...........	0
	711	71.2	2.10938E-001	6.92601E-005	0.00000E+000	2.10991E-001	0.00000E+000	8	...........	0
	714	71.5	2.13971E-001	7.00335E-005	0.00000E+000	2.13991E-001	0.00000E+000	8	...........	0
	717	71.8	2.16954E-001	7.17603E-005	0.00000E+000	2.16991E-001	0.00000E+000	8	...........	0
	720	72.1	2.19967E-001	7.10436E-005	0.00000E+000	2.19991E-001	0.00000E+000	8	...........	0
	723	72.4	2.22909E-001	7.10002E-005	0.00000E+000	2.22991E-001	0.00000E+000	8	...........	0
	726	72.7	2.25953E-001	7.26870E-005	0.00000E+000	2.25991E-001	0.00000E+000	8	...........	0
	729	73	2.28945E-001	7.42005E-005	0.00000E+000	2.28991E-001	0.00000E+000	8	...........	0
	732	73.3	2.31928E-001	7.58306E-005	0.00000E+000	2.31991E-001	0.00000E+000	8	...........	0
	735	73.6	2.34931E-001	7.65540E-005	0.00000E+000	2.34992E-001	0.00000E+000	8	...........	0
	738	73.9	2.37944E-001	7.68840E-005	0.00000E+000	2.37992E-001	0.00000E+000	8	...........	0
	741	74.2	2.40957E-001	7.70206E-005	0.00000E+000	2.40992E-001	0.00000E+000	8	...........	0
	744	74.5	2.43950E-001	7.61106E-005	0.00000E+000	2.43992E-001	0.00000E+000	8	...........	0
	747	74.8	2.46923E-001	7.59506E-005	0.00000E+000	2.46992E-001	0.00000E+000	8	...........	0
	750	75.1	2.49946E-001	7.59306E-005	0.00000E+000	2.49992E-001	0.00000E+000	8	...........	0
	753	75.4	2.52929E-001	7.61606E-005	0.00000E+000	2.52992E-001	0.00000E+000	8	...........	0
	756	75.7	2.55922E-001	7.57139E-005	0.00000E+000	2.55992E-001	0.00000E+000	8	...........	0
	759	76	2.58915E-001	7.65773E-005	0.00000E+000	2.58993E-001	0.00000E+000	8	...........	0
	762	76.3	2.61938E-001	7.71873E-005	0.00000E+000	2.61993E-001	0.00000E+000	8	...........	0
	765	76.6	2.64911E-001	7.78274E-005	0.00000E+000	2.64993E-001	0.00000E+000	8	...........	0
	768	76.9	2.67955E-001	7.82507E-005	0.00000E+000	2.67993E-001	0.00000E+000	8	...........	0
	771	77.2	2.71058E-001	8.12843E-005	0.00000E+000	2.70993E-001	0.00000E+000	8	...........	0
	774	77.5	2.74061E-001	8.29277E-005	0.00000E+000	2.73993E-001	0.00000E+000	8	...........	0
	777	77.8	2.77064E-001	8.31077E-005	0.00000E+000	2.76993E-001	0.00000E+000	8	...........	0
	780	78.1	2.80167E-001	8.47112E-005	0.00000E+000	2.79993E-001	0.00000E+000	8	...........	0
	783	78.4	2.82970E-001	8.40378E-005	0.00000E+000	2.82993E-001	0.00000E+000	8	...........	0
	786	78.7	2.86073E-001	8.35178E-005	0.00000E+000	2.85994E-001	0.00000E+000	8	...........	0
	789	79	2.89076E-001	8.42712E-005	0.00000E+000	2.88994E-001	0.00000E+000	8	...........	0
	792	79.3	2.92079E-001	8.56146E-005	0.00000E+000	2.91994E-001	0.00000E+000	8	...........	0
	795	79.6	2.95182E-001	8.70347E-005	0.00000E+000	2.94994E-001	0.00000E+000	8	...........	0
	798	79.9	2.98085E-001	8.70113E-005	0.00000E+000	2.97994E-001	0.00000E+000	8	...........	0
	801	80.2	3.01088E-001	8.80714E-005	0.00000E+000	3.00994E-001	0.00000E+000	8	...........	0
	804	80.5	3.04091E-001	8.62180E-005	0.00000E+000	3.03994E-001	0.00000E+000	8	...........	0
	807	80.8	3.06994E-001	8.77647E-005	0.00000E+000	3.06994E-001	0.00000E+000	8	...........	0
	810	81.1	3.10097E-001	8.87181E-005	0.00000E+000	3.09995E-001	0.00000E+000	8	...........	0
	813	81.4	3.13000E-001	8.95615E-005	0.00000E+000	3.12995E-001	0.00000E+000	8	...........	0
	816	81.7	3.16103E-001	8.95144E-005	0.00000E+000	3.15995E-001	0.00000E+000	9	...........	0
	819	82	3.19106E-001	9.00138E-005	0.00000E+000	3.18995E-001	0.00000E+000	9	...........	0
	822	82.3	3.22109E-001	9.02801E-005	0.00000E+000	3.21995E-001	0.00000E+000	9	...........	0
	825	82.6	3.25112E-001	9.07463E-005	0.00000E+000	3.24995E-001	0.00000E+000	9	...........	0
	828	82.9	3.28115E-001	9.12457E-005	0.00000E+000	3.27995E-001	0.00000E+000	9	...........	0
	831	83.2	3.31018E-001	9.18783E-005	0.00000E+000	3.30995E-001	0.00000E+000	9	...........	0
	834	83.5	3.34121E-001	9.24776E-005	0.00000E+000	3.33996E-001	0.00000E+000	9	...........	0
	837	83.8	3.37024E-001	9.21779E-005	0.00000E+000	3.36996E-001	0.00000E+000	9	...........	0
	840	84.1	3.40127E-001	9.35763E-005	0.00000E+000	3.39996E-001	0.00000E+000	9	...........	0
	843	84.4	3.43130E-001	9.44752E-005	0.00000E+000	3.42996E-001	0.00000E+000	9	...........	0
	846	84.7	3.46033E-001	9.42422E-005	0.00000E+000	3.45996E-001	0.00000E+000	9	...........	0
	849	85	3.49036E-001	9.31435E-005	0.00000E+000	3.48996E-001	0.00000E+000	9	...........	0
	852	85.3	3.52139E-001	9.35097E-005	0.00000E+000	3.51996E-001	0.00000E+000	9	...........	0
	855	85.6	3.55142E-001	9.37428E-005	0.00000E+000	3.54996E-001	0.00000E+000	9	...........	0
	858	85.9	3.58044E-001	9.18783E-005	0.00000E+000	3.57997E-001	0.00000E+000	9	...........	0
	861	86.2	3.61148E-001	9.25442E-005	0.00000E+000	3.60997E-001	0.00000E+000	9	...........	0
	864	86.5	3.64050E-001	9.50412E-005	0.00000E+000	3.63997E-001	0.00000E+000	9	...........	0
	867	86.8	3.67053E-001	9.70056E-005	0.00000E+000	3.66997E-001	0.00000E+000	9	...........	0
	870	87.1	3.70056E-001	9.70722E-005	0.00000E+000	3.69997E-001	0.00000E+000	9	...........	0
	873	87.4	3.73059E-001	9.79045E-005	0.00000E+000	3.72997E-001	0.00000E+000	9	...........	0
	876	87.7	3.76062E-001	9.80377E-005	0.00000E+000	3.75997E-001	0.00000E+000	9	...........	0
	879	88	3.79166E-001	9.80710E-005	0.00000E+000	3.78997E-001	0.00000E+000	9	...........	0
	882	88.3	3.82169E-001	9.86037E-005	0.00000E+000	3.81998E-001	0.00000E+000	9	...........	0
	885	88.6	3.85071E-001	9.85038E-005	0.00000E+000	3.84998E-001	0.00000E+000	9	...........	0
	888	88.9	3.88174E-001	9.90365E-005	0.00000E+000	3.87998E-001	0.00000E+000	9	...........	0
	891	89.2	3.91177E-001	9.97024E-005	0.00000E+000	3.90998E-001	0.00000E+000	9	...........	0
	894	89.5	3.94080E-001	9.98356E-005	0.00000E+000	3.93998E-001	0.00000E+000	9	...........	0
	897	89.8	3.97083E-001	1.00501E-004	0.00000E+000	3.96998E-001	0.00000E+000	9	...........	0
	900	90.1	4.00086E-001	1.01600E-004	0.00000E+000	3.99998E-001	0.00000E+000	9	...........	0
	903	90.4	4.03189E-001	1.01800E-004	0.00000E+000	4.02998E-001	0.00000E+000	9	...........	0
	906	90.7	4.06092E-001	1.00368E-004	0.00000E+000	4.05999E-001	0.00000E+000	9	...........	0
	909	91	4.09195E-001	1.00302E-004	0.00000E+000	4.08999E-001	0.00000E+000	9	...........	0
	912	91.3	4.12198E-001	1.01733E-004	0.00000E+000	4.11999E-001	0.00000E+000	9	...........	0
	915	91.6	4.15101E-001	1.01001E-004	0.00000E+000	4.14999E-001	0.00000E+000	9	...........	0
	918	91.9	4.18104E-001	1.01234E-004	0.00000E+000	4.17999E-001	0.00000E+000	9	...........	0
	921	92.2	4.21107E-001	1.02299E-004	0.00000E+000	4.20999E-001	0.00000E+000	9	...........	0
	924	92.5	4.24110E-001	1.03931E-004	0.00000E+000	4.23999E-001	0.00000E+000	9	...........	0
	927	92.8	4.27213E-001	1.04796E-004	0.00000E+000	4.26999E-001	0.00000E+000	9	...........	0
	930	93.1	4.30016E-001	1.05396E-004	0.00000E+000	4.30000E-001	0.00000E+000	9	...........	0
	933	93.4	4.33119E-001	1.04896E-004	0.00000E+000	4.33000E-001	0.00000E+000	9	...........	0
	936	93.7	4.36122E-001	1.05629E-004	0.00000E+000	4.36000E-001	0.00000E+000	9	...........	0
	939	94	4.39125E-001	1.06927E-004	0.00000E+000	4.39000E-001	0.00000E+000	9	...........	0
	942	94.3	4.42128E-001	1.07060E-004	0.00000E+000	4.42000E-001	0.00000E+000	9	...........	0
	945	94.6	4.45131E-001	1.07393E-004	0.00000E+000	4.45000E-001	0.00000E+000	9	...........	0
	948	94.9	4.48134E-001	1.07527E-004	0.00000E+000	4.48000E-001	0.00000E+000	9	...........	0
	951	95.2	4.51137E-001	1.07194E-004	0.00000E+000	4.51000E-001	0.00000E+000	9	...........	0
	954	95.5	4.54140E-001	1.08093E-004	0.00000E+000	4.54001E-001	0.00000E+000	9	...........	0
	957	95.8	4.57043E-001	1.08925E-004	0.00000E+000	4.57001E-001	0.00000E+000	9	...........	0
	960	96.1	4.60246E-001	1.08093E-004	0.00000E+000	4.60001E-001	0.00000E+000	9	...........	0
	963	96.4	4.63149E-001	1.09058E-004	0.00000E+000	4.63001E-001	0.00000E+000	9	...........	0
	966	96.7	4.66152E-001	1.09724E-004	0.00000E+000	4.66001E-001	0.00000E+000	9	...........	0
	969	97	4.69155E-001	1.08992E-004	0.00000E+000	4.69001E-001	0.00000E+000	9	...........	0
	972	97.3	4.72058E-001	1.09025E-004	0.00000E+000	4.72001E-001	0.00000E+000	9	...........	0
	975	97.6	4.75161E-001	1.09458E-004	0.00000E+000	4.75001E-001	0.00000E+000	9	...........	0
	978	97.9	4.78164E-001	1.10823E-004	0.00000E+000	4.78001E-001	0.00000E+000	9	...........	0
	981	98.2	4.81267E-001	1.10723E-004	0.00000E+000	4.81002E-001	0.00000E+000	9	...........	0
	984	98.5	4.84170E-001	1.12254E-004	0.00000E+000	4.84002E-001	0.00000E+000	9	...........	0
	987	98.8	4.87073E-001	1.11822E-004	0.00000E+000	4.87002E-001	0.00000E+000	9	...........	0
	990	99.1	4.90176E-001	1.10290E-004	0.00000E+000	4.90002E-001	0.00000E+000	9	...........	0
	993	99.4	4.93179E-001	1.11355E-004	0.00000E+000	4.93002E-001	0.00000E+000	9	...........	0
	996	99.7	4.96082E-001	1.12254E-004	0.00000E+000	4.96002E-001	0.00000E+000	9	...........	0
	999	100	4.99085E-001	1.12587E-004	0.00000E+000	4.99002E-001	0.00000E+000	9	...........	0
	1002	100.3	5.02188E-001	1.13486E-004	0.00000E+000	5.02002E-001	0.00000E+000	9	...........	0
	1005	100.6	5.05091E-001	1.13852E-004	0.00000E+000	5.05003E-001	0.00000E+000	9	...........	0
	1008	100.9	5.08194E-001	1.13786E-004	0.00000E+000	5.08003E-001	0.00000E+000	9	...........	0
	1011	101.2	5.11097E-001	1.13420E-004	0.00000E+000	5.11003E-001	0.00000E+000	9	...........	0
	1014	101.5	5.14100E-001	1.14352E-004	0.00000E+000	5.14003E-001	0.00000E+000	9	...........	0
	1017	101.8	5.17103E-001	1.14319E-004	0.00000E+000	5.17003E-001	0.00000E+000	9	...........	0
	1020	102.1	5.20206E-001	1.14352E-004	0.00000E+000	5.20003E-001	0.00000E+000	9	...........	0
	1023	102.4	5.23209E-001	1.15650E-004	0.00000E+000	5.23003E-001	0.00000E+000	9	...........	0
	1026	102.7	5.26112E-001	1.16050E-004	0.00000E+000	5.26003E-001	0.00000E+000	9	...........	0
	1029	103	5.29215E-001	1.16050E-004	0.00000E+000	5.29004E-001	0.00000E+000	9	...........	0
	1032	103.3	5.32118E-001	1.15684E-004	0.00000E+000	5.32004E-001	0.00000E+000	9	...........	0
	1035	103.6	5.35121E-001	1.16183E-004	0.00000E+000	5.35004E-001	0.00000E+000	9	...........	0
	1038	103.9	5.38124E-001	1.17149E-004	0.00000E+000	5.38004E-001	0.00000E+000	9	...........	0
	1041	104.2	5.41127E-001	1.17515E-004	0.00000E+000	5.41004E-001	0.00000E+000	9	...........	0
	1044	104.5	5.44130E-001	1.18281E-004	0.00000E+000	5.44004E-001	0.00000E+000	9	...........	0
	1047	104.8	5.47233E-001	1.17648E-004	0.00000E+000	5.47004E-001	0.00000E+000	9	...........	0
	1050	105.1	5.50136E-001	1.18713E-004	0.00000E+000	5.50004E-001	0.00000E+000	9	...........	0
	1053	105.4	5.53139E-001	1.16916E-004	0.00000E+000	5.53005E-001	0.00000E+000	9	...........	0
	1056	105.7	5.56142E-001	1.16682E-004	0.00000E+000	5.56005E-001	0.00000E+000	9	...........	0
	1059	106	5.59145E-001	1.15750E-004	0.00000E+000	5.59005E-001	0.00000E+000	9	...........	0
	1062	106.3	5.62048E-001	1.17881E-004	0.00000E+000	5.62005E-001	0.00000E+000	9	...........	0
	1065	106.6	5.65151E-001	1.19180E-004	0.00000E+000	5.65005E-001	0.00000E+000	9	...........	0
	1068	106.9	5.68154E-001	1.19879E-004	0.00000E+000	5.68005E-001	0.00000E+000	9	...........	0
	1071	107.2	5.71157E-001	1.20245E-004	0.00000E+000	5.71005E-001	0.00000E+000	9	...........	0
	1074	107.5	5.74160E-001	1.19046E-004	0.00000E+000	5.74005E-001	0.00000E+000	9	...........	0
	1077	107.8	5.77163E-001	1.19146E-004	0.00000E+000	5.77006E-001	0.00000E+000	9	...........	0
	1080	108.1	5.80166E-001	1.16017E-004	0.00000E+000	5.80006E-001	0.00000E+000	9	...........	0
	1083	108.4	5.83169E-001	1.17049E-004	0.00000E+000	5.83006E-001	0.00000E+000	9	...........	0
	1086	108.7	5.86172E-001	1.17715E-004	0.00000E+000	5.86006E-001	0.00000E+000	9	...........	0
	1089	109	5.89175E-001	1.17814E-004	0.00000E+000	5.89006E-001	0.00000E+000	9	...........	0
	1092	109.3	5.92178E-001	1.17848E-004	0.00000E+000	5.92006E-001	0.00000E+000	9	...........	0
	1095	109.6	5.95181E-001	1.17715E-004	0.00000E+000	5.95006E-001	0.00000E+000	9	...........	0
	1098	109.9	5.98184E-001	1.17348E-004	0.00000E+000	5.98006E-001	0.00000E+000	9	...........	0
	1100	110.1	6.00186E-001	1.23375E-004	0.00000E+000	6.00006E-001	0.00000E+000	9	...........	0