File: LSV ZFO/ZFO_h400_dark_reator.DTA
EXPLAIN
TAG	LSV
TITLE	LABEL	Linear Sweep Voltammetry	Test &Identifier
DATE	LABEL	7/5/2024	Date
TIME	LABEL	17:27:26	Time
NOTES	NOTES	1	&Notes...

PSTAT	PSTAT	L3FNano	Potentiostat
VINIT	POTEN	-5.00000E-001	F	&Initial E (V)
VFINAL	POTEN	6.00000E-001	F	&Final E (V)
SCANRATE	QUANT	9.99998E+000	&Scan Rate (mV/s)
STEPSIZE	QUANT	1.00000E+000	St&ep Size (mV)
IMODE	SELECTOR	0	I/E Range &Mode
IRANGE	QUANT	1.00000E+001	&Max Current (mA)
AREA	QUANT	1.00000E+000	Electrode &Area (cm^2)
ELECTRODETYPE	SELECTOR	0	Electrode Type
STRIPPING	TOGGLE	F	Used for Stripping
POLARITY	TOGGLE	F	Signal Polarity
CONDIT	TWOPARAM	F	1.50000E+001	0.00000E+000	Conditionin&g	Time(s)	E(V)
DELAY	TWOPARAM	F	3.00000E+001	0.00000E+000	Init. De&lay	Time(s)	Stab.(mV/s)
EQDELAY	QUANT	5.00000E+000	Equil. &Time (s)
IRCOMP	SELECTOR	0	IRCom&p
PFCOR	QUANT	5.00000E+001	PF Corr. (ohm)
SAMPLINGMODE	SELECTOR	0	Sampling &Mode
EOC	QUANT	0	Open Circuit (V)
PSTATMODEL	IQUANT	48	Pstat Model
PSTATSECTION	LABEL	IFC1000-07082	Pstat Section
PSTATSERIALNO	LABEL	07082	Pstat Serial Number
CTRLMODE	IQUANT	1	Control Mode
IESTAB	IQUANT	2	I/E Stability
CASPEED	IQUANT	2	Control Amp Speed
CONVENTION	IQUANT	1	Current Convention
ICHRANGE	IQUANT	2	Ich Range
ICHRANGEMODE	TOGGLE	F	Ich Auto Range
ICHOFFSETENABLE	TOGGLE	F	Ich Offset Enable
ICHOFFSET	QUANT	0	Ich Offset (V)
ICHFILTER	IQUANT	3	Ich Filter
VCHRANGE	IQUANT	2	Vch Range
VCHRANGEMODE	TOGGLE	T	Vch Auto Range
VCHOFFSETENABLE	TOGGLE	F	Vch Offset Enable
VCHOFFSET	QUANT	0	Vch Offset (V)
VCHFILTER	IQUANT	3	Vch Filter
IERANGELOWERLIMIT	IQUANT	4	I/E Range Lower Limit
IERANGEMODE	TOGGLE	T	I/E AutoRange
IERANGE	IQUANT	11	I/E Range
ACHSELECT	IQUANT	4	Ach Select
CABLEID	IQUANT	14	Cable ID
DCCALDATE	LABEL	7/3/2024	DC Calibration Date
ACCALDATE	LABEL	7/3/2024	AC Calibration Date
FRAMEWORKVERSION	QUANT	6.24	Framework Version
INSTRUMENTVERSION	LABEL	3.28	Instrument Version
CURVE	TABLE	1101
	Pt	T	Vf	Im	Vu	Sig	Ach	IERange	Over	Cycle
	#	s	V vs. Ref.	A	V	V	V	#	bits	#
	0	0.1	-5.00210E-001	-2.13536E-005	0.00000E+000	-4.99988E-001	0.00000E+000	11	...........	0
	3	0.4	-4.97107E-001	-2.71466E-005	0.00000E+000	-4.96988E-001	0.00000E+000	8	...........	0
	6	0.7	-4.94204E-001	-2.63132E-005	0.00000E+000	-4.93988E-001	0.00000E+000	8	...........	0
	9	1	-4.91101E-001	-2.47365E-005	0.00000E+000	-4.90988E-001	0.00000E+000	8	...........	0
	12	1.3	-4.88098E-001	-2.43398E-005	0.00000E+000	-4.87988E-001	0.00000E+000	8	...........	0
	15	1.6	-4.85095E-001	-2.29897E-005	0.00000E+000	-4.84988E-001	0.00000E+000	8	...........	0
	18	1.9	-4.81992E-001	-2.27163E-005	0.00000E+000	-4.81988E-001	0.00000E+000	8	...........	0
	21	2.2	-4.79089E-001	-2.15096E-005	0.00000E+000	-4.78988E-001	0.00000E+000	8	...........	0
	24	2.5	-4.76186E-001	-2.07428E-005	0.00000E+000	-4.75987E-001	0.00000E+000	8	...........	0
	27	2.8	-4.73083E-001	-2.08228E-005	0.00000E+000	-4.72987E-001	0.00000E+000	8	...........	0
	30	3.1	-4.70080E-001	-1.98261E-005	0.00000E+000	-4.69987E-001	0.00000E+000	8	...........	0
	33	3.4	-4.67077E-001	-2.00961E-005	0.00000E+000	-4.66987E-001	0.00000E+000	8	...........	0
	36	3.7	-4.64174E-001	-1.86627E-005	0.00000E+000	-4.63987E-001	0.00000E+000	8	...........	0
	39	4	-4.61171E-001	-1.84493E-005	0.00000E+000	-4.60987E-001	0.00000E+000	8	...........	0
	42	4.3	-4.58168E-001	-1.83560E-005	0.00000E+000	-4.57987E-001	0.00000E+000	8	...........	0
	45	4.6	-4.55165E-001	-1.71959E-005	0.00000E+000	-4.54987E-001	0.00000E+000	8	...........	0
	48	4.9	-4.52162E-001	-1.71693E-005	0.00000E+000	-4.51987E-001	0.00000E+000	8	...........	0
	51	5.2	-4.49059E-001	-1.58258E-005	0.00000E+000	-4.48986E-001	0.00000E+000	8	...........	0
	54	5.5	-4.46156E-001	-1.52591E-005	0.00000E+000	-4.45986E-001	0.00000E+000	8	...........	0
	57	5.8	-4.43053E-001	-1.53491E-005	0.00000E+000	-4.42986E-001	0.00000E+000	8	...........	0
	60	6.1	-4.40150E-001	-1.44157E-005	0.00000E+000	-4.39986E-001	0.00000E+000	8	...........	0
	63	6.4	-4.37147E-001	-1.45924E-005	0.00000E+000	-4.36986E-001	0.00000E+000	8	...........	0
	66	6.7	-4.34144E-001	-1.36257E-005	0.00000E+000	-4.33986E-001	0.00000E+000	8	...........	0
	69	7	-4.31041E-001	-1.31323E-005	0.00000E+000	-4.30986E-001	0.00000E+000	8	...........	0
	72	7.3	-4.28138E-001	-1.35923E-005	0.00000E+000	-4.27986E-001	0.00000E+000	8	...........	0
	75	7.6	-4.25135E-001	-1.27023E-005	0.00000E+000	-4.24985E-001	0.00000E+000	8	...........	0
	78	7.9	-4.22032E-001	-1.31890E-005	0.00000E+000	-4.21985E-001	0.00000E+000	8	...........	0
	81	8.2	-4.19129E-001	-1.21256E-005	0.00000E+000	-4.18985E-001	0.00000E+000	8	...........	0
	84	8.5	-4.16026E-001	-1.18756E-005	0.00000E+000	-4.15985E-001	0.00000E+000	8	...........	0
	87	8.8	-4.12923E-001	-1.21889E-005	0.00000E+000	-4.12985E-001	0.00000E+000	8	...........	0
	90	9.1	-4.10120E-001	-1.11355E-005	0.00000E+000	-4.09985E-001	0.00000E+000	8	...........	0
	93	9.4	-4.07017E-001	-1.10322E-005	0.00000E+000	-4.06985E-001	0.00000E+000	8	...........	0
	96	9.7	-4.04114E-001	-1.05988E-005	0.00000E+000	-4.03985E-001	0.00000E+000	8	...........	0
	99	10	-4.01111E-001	-1.02421E-005	0.00000E+000	-4.00984E-001	0.00000E+000	8	...........	0
	102	10.3	-3.98108E-001	-1.09188E-005	0.00000E+000	-3.97984E-001	0.00000E+000	8	...........	0
	105	10.6	-3.95105E-001	-9.64540E-006	0.00000E+000	-3.94984E-001	0.00000E+000	8	...........	0
	108	10.9	-3.92102E-001	-9.51539E-006	0.00000E+000	-3.91984E-001	0.00000E+000	8	...........	0
	111	11.2	-3.89099E-001	-9.32871E-006	0.00000E+000	-3.88984E-001	0.00000E+000	8	...........	0
	114	11.5	-3.86096E-001	-9.95209E-006	0.00000E+000	-3.85984E-001	0.00000E+000	8	...........	0
	117	11.8	-3.83093E-001	-9.60540E-006	0.00000E+000	-3.82984E-001	0.00000E+000	8	...........	0
	120	12.1	-3.79990E-001	-8.45198E-006	0.00000E+000	-3.79984E-001	0.00000E+000	8	...........	0
	123	12.4	-3.77087E-001	-8.89868E-006	0.00000E+000	-3.76983E-001	0.00000E+000	8	...........	0
	126	12.7	-3.73984E-001	-6.67864E-006	0.00000E+000	-3.73983E-001	0.00000E+000	7	...........	0
	129	13	-3.71081E-001	-6.56394E-006	0.00000E+000	-3.70983E-001	0.00000E+000	7	...........	0
	132	13.3	-3.67878E-001	-6.98973E-006	0.00000E+000	-3.67983E-001	0.00000E+000	7	...........	0
	135	13.6	-3.64975E-001	-6.04247E-006	0.00000E+000	-3.64983E-001	0.00000E+000	7	...........	0
	138	13.9	-3.61972E-001	-6.59995E-006	0.00000E+000	-3.61983E-001	0.00000E+000	7	...........	0
	141	14.2	-3.59169E-001	-5.45330E-006	0.00000E+000	-3.58983E-001	0.00000E+000	7	...........	0
	144	14.5	-3.55966E-001	-5.39062E-006	0.00000E+000	-3.55983E-001	0.00000E+000	7	...........	0
	147	14.8	-3.52963E-001	-5.79006E-006	0.00000E+000	-3.52982E-001	0.00000E+000	7	...........	0
	150	15.1	-3.49960E-001	-4.82013E-006	0.00000E+000	-3.49982E-001	0.00000E+000	7	...........	0
	153	15.4	-3.47057E-001	-4.64241E-006	0.00000E+000	-3.46982E-001	0.00000E+000	7	...........	0
	156	15.7	-3.43954E-001	-4.37167E-006	0.00000E+000	-3.43982E-001	0.00000E+000	7	...........	0
	159	16	-3.40951E-001	-4.20496E-006	0.00000E+000	-3.40982E-001	0.00000E+000	7	...........	0
	162	16.3	-3.38048E-001	-4.66809E-006	0.00000E+000	-3.37982E-001	0.00000E+000	7	...........	0
	165	16.6	-3.35045E-001	-3.72616E-006	0.00000E+000	-3.34982E-001	0.00000E+000	7	...........	0
	168	16.9	-3.31942E-001	-4.24731E-006	0.00000E+000	-3.31982E-001	0.00000E+000	7	...........	0
	171	17.2	-3.29039E-001	-3.36406E-006	0.00000E+000	-3.28982E-001	0.00000E+000	7	...........	0
	174	17.5	-3.25936E-001	-3.82419E-006	0.00000E+000	-3.25981E-001	0.00000E+000	7	...........	0
	177	17.8	-3.22933E-001	-3.62447E-006	0.00000E+000	-3.22981E-001	0.00000E+000	7	...........	0
	180	18.1	-3.20030E-001	-2.86459E-006	0.00000E+000	-3.19981E-001	0.00000E+000	7	...........	0
	183	18.4	-3.17027E-001	-3.24536E-006	0.00000E+000	-3.16981E-001	0.00000E+000	7	...........	0
	186	18.7	-3.14024E-001	-2.42147E-006	0.00000E+000	-3.13981E-001	0.00000E+000	7	...........	0
	189	19	-3.11021E-001	-2.21175E-006	0.00000E+000	-3.10981E-001	0.00000E+000	7	...........	0
	192	19.3	-3.07918E-001	-2.52983E-006	0.00000E+000	-3.07981E-001	0.00000E+000	7	...........	0
	195	19.6	-3.05015E-001	-1.95268E-006	0.00000E+000	-3.04981E-001	0.00000E+000	7	...........	0
	198	19.9	-3.02013E-001	-2.16473E-006	0.00000E+000	-3.01980E-001	0.00000E+000	7	...........	0
	201	20.2	-2.99010E-001	-1.48155E-006	0.00000E+000	-2.98980E-001	0.00000E+000	7	...........	0
	204	20.5	-2.96007E-001	-1.76662E-006	0.00000E+000	-2.95980E-001	0.00000E+000	7	...........	0
	207	20.8	-2.93004E-001	-1.11478E-006	0.00000E+000	-2.92980E-001	0.00000E+000	7	...........	0
	210	21.1	-2.90001E-001	-1.03109E-006	0.00000E+000	-2.89980E-001	0.00000E+000	7	...........	0
	213	21.4	-2.86998E-001	-1.28249E-006	0.00000E+000	-2.86980E-001	0.00000E+000	7	...........	0
	216	21.7	-2.83995E-001	-8.20698E-007	0.00000E+000	-2.83980E-001	0.00000E+000	7	...........	0
	219	22	-2.80992E-001	-7.34674E-007	0.00000E+000	-2.80980E-001	0.00000E+000	7	...........	0
	222	22.3	-2.78089E-001	-5.16614E-007	0.00000E+000	-2.77979E-001	0.00000E+000	7	...........	0
	225	22.6	-2.74986E-001	-3.22228E-007	0.00000E+000	-2.74979E-001	0.00000E+000	7	...........	0
	228	22.9	-2.71883E-001	-1.57182E-007	0.00000E+000	-2.71979E-001	0.00000E+000	7	...........	0
	231	23.2	-2.68980E-001	-4.81938E-007	0.00000E+000	-2.68979E-001	0.00000E+000	7	...........	0
	234	23.5	-2.65877E-001	-2.64799E-008	0.00000E+000	-2.65979E-001	0.00000E+000	7	...........	0
	237	23.8	-2.62874E-001	-2.56543E-007	0.00000E+000	-2.62979E-001	0.00000E+000	7	...........	0
	240	24.1	-2.60071E-001	1.54236E-007	0.00000E+000	-2.59979E-001	0.00000E+000	7	...........	0
	243	24.4	-2.56968E-001	2.89940E-007	0.00000E+000	-2.56979E-001	0.00000E+000	7	...........	0
	246	24.7	-2.53965E-001	1.57904E-007	0.00000E+000	-2.53978E-001	0.00000E+000	7	...........	0
	249	25	-2.50962E-001	4.13308E-007	0.00000E+000	-2.50978E-001	0.00000E+000	7	...........	0
	252	25.3	-2.47959E-001	4.77659E-007	0.00000E+000	-2.47978E-001	0.00000E+000	7	...........	0
	255	25.6	-2.44956E-001	5.94691E-007	0.00000E+000	-2.44978E-001	0.00000E+000	7	...........	0
	258	25.9	-2.42013E-001	6.99386E-007	0.00000E+000	-2.41978E-001	0.00000E+000	7	...........	0
	261	26.2	-2.39000E-001	5.70684E-007	0.00000E+000	-2.38978E-001	0.00000E+000	7	...........	0
	264	26.5	-2.36017E-001	7.65071E-007	0.00000E+000	-2.35978E-001	0.00000E+000	7	...........	0
	267	26.8	-2.33024E-001	6.60375E-007	0.00000E+000	-2.32978E-001	0.00000E+000	7	...........	0
	270	27.1	-2.30041E-001	9.25115E-007	0.00000E+000	-2.29977E-001	0.00000E+000	7	...........	0
	273	27.4	-2.26998E-001	7.99414E-007	0.00000E+000	-2.26977E-001	0.00000E+000	7	...........	0
	276	27.7	-2.24115E-001	1.09349E-006	0.00000E+000	-2.23977E-001	0.00000E+000	7	...........	0
	279	28	-2.21042E-001	1.01514E-006	0.00000E+000	-2.20977E-001	0.00000E+000	7	...........	0
	282	28.3	-2.18019E-001	1.13284E-006	0.00000E+000	-2.17977E-001	0.00000E+000	7	...........	0
	285	28.6	-2.15046E-001	1.26254E-006	0.00000E+000	-2.14977E-001	0.00000E+000	7	...........	0
	288	28.9	-2.12003E-001	1.24754E-006	0.00000E+000	-2.11977E-001	0.00000E+000	7	...........	0
	291	29.2	-2.09020E-001	1.33123E-006	0.00000E+000	-2.08977E-001	0.00000E+000	7	...........	0
	294	29.5	-2.06027E-001	1.34390E-006	0.00000E+000	-2.05976E-001	0.00000E+000	7	...........	0
	297	29.8	-2.03024E-001	1.49927E-006	0.00000E+000	-2.02976E-001	0.00000E+000	7	...........	0
	300	30.1	-2.00011E-001	1.60530E-006	0.00000E+000	-1.99976E-001	0.00000E+000	7	...........	0
	303	30.4	-1.97008E-001	1.55562E-006	0.00000E+000	-1.96976E-001	0.00000E+000	7	...........	0
	306	30.7	-1.94005E-001	1.67866E-006	0.00000E+000	-1.93976E-001	0.00000E+000	7	...........	0
	309	31	-1.91003E-001	1.75701E-006	0.00000E+000	-1.90976E-001	0.00000E+000	7	...........	0
	312	31.3	-1.88020E-001	1.68132E-006	0.00000E+000	-1.87976E-001	0.00000E+000	7	...........	0
	315	31.6	-1.84997E-001	1.80902E-006	0.00000E+000	-1.84976E-001	0.00000E+000	7	...........	0
	318	31.9	-1.82054E-001	1.71533E-006	0.00000E+000	-1.81975E-001	0.00000E+000	7	...........	0
	321	32.2	-1.79021E-001	1.76268E-006	0.00000E+000	-1.78975E-001	0.00000E+000	7	...........	0
	324	32.5	-1.76018E-001	1.75068E-006	0.00000E+000	-1.75975E-001	0.00000E+000	7	...........	0
	327	32.8	-1.73025E-001	1.85670E-006	0.00000E+000	-1.72975E-001	0.00000E+000	7	...........	0
	330	33.1	-1.69982E-001	1.89371E-006	0.00000E+000	-1.69975E-001	0.00000E+000	7	...........	0
	333	33.4	-1.67089E-001	1.84037E-006	0.00000E+000	-1.67025E-001	0.00000E+000	7	...........	0
	336	33.7	-1.64056E-001	1.81403E-006	0.00000E+000	-1.64025E-001	0.00000E+000	7	...........	0
	339	34	-1.61093E-001	1.94339E-006	0.00000E+000	-1.61025E-001	0.00000E+000	7	...........	0
	342	34.3	-1.58070E-001	1.92906E-006	0.00000E+000	-1.58025E-001	0.00000E+000	7	...........	0
	345	34.6	-1.55097E-001	1.93273E-006	0.00000E+000	-1.55024E-001	0.00000E+000	7	...........	0
	348	34.9	-1.52094E-001	1.99641E-006	0.00000E+000	-1.52024E-001	0.00000E+000	7	...........	0
	351	35.2	-1.49081E-001	1.96073E-006	0.00000E+000	-1.49024E-001	0.00000E+000	7	...........	0
	354	35.5	-1.46088E-001	2.02908E-006	0.00000E+000	-1.46024E-001	0.00000E+000	7	...........	0
	357	35.8	-1.43095E-001	1.90472E-006	0.00000E+000	-1.43024E-001	0.00000E+000	7	...........	0
	360	36.1	-1.40092E-001	1.91039E-006	0.00000E+000	-1.40024E-001	0.00000E+000	7	...........	0
	363	36.4	-1.37069E-001	2.00608E-006	0.00000E+000	-1.37024E-001	0.00000E+000	7	...........	0
	366	36.7	-1.34096E-001	1.98874E-006	0.00000E+000	-1.34024E-001	0.00000E+000	7	...........	0
	369	37	-1.31103E-001	2.05409E-006	0.00000E+000	-1.31023E-001	0.00000E+000	7	...........	0
	372	37.3	-1.28090E-001	2.12544E-006	0.00000E+000	-1.28023E-001	0.00000E+000	7	...........	0
	375	37.6	-1.25117E-001	2.05142E-006	0.00000E+000	-1.25023E-001	0.00000E+000	7	...........	0
	378	37.9	-1.22114E-001	2.06776E-006	0.00000E+000	-1.22023E-001	0.00000E+000	7	...........	0
	381	38.2	-1.19151E-001	2.21914E-006	0.00000E+000	-1.19023E-001	0.00000E+000	7	...........	0
	384	38.5	-1.16088E-001	2.09644E-006	0.00000E+000	-1.16023E-001	0.00000E+000	7	...........	0
	387	38.8	-1.13105E-001	2.21580E-006	0.00000E+000	-1.13023E-001	0.00000E+000	7	...........	0
	390	39.1	-1.10142E-001	2.28549E-006	0.00000E+000	-1.10023E-001	0.00000E+000	7	...........	0
	393	39.4	-1.07089E-001	2.21547E-006	0.00000E+000	-1.07022E-001	0.00000E+000	7	...........	0
	396	39.7	-1.04086E-001	2.39552E-006	0.00000E+000	-1.04022E-001	0.00000E+000	7	...........	0
	399	40	-1.01063E-001	2.27282E-006	0.00000E+000	-1.01022E-001	0.00000E+000	7	...........	0
	402	40.3	-9.81100E-002	2.38818E-006	0.00000E+000	-9.80221E-002	0.00000E+000	7	...........	0
	405	40.6	-9.51171E-002	2.47287E-006	0.00000E+000	-9.50219E-002	0.00000E+000	7	...........	0
	408	40.9	-9.21041E-002	2.46487E-006	0.00000E+000	-9.20218E-002	0.00000E+000	7	...........	0
	411	41.2	-8.90610E-002	2.33717E-006	0.00000E+000	-8.90217E-002	0.00000E+000	7	...........	0
	414	41.5	-8.60981E-002	2.51422E-006	0.00000E+000	-8.60216E-002	0.00000E+000	7	...........	0
	417	41.8	-8.31151E-002	2.58157E-006	0.00000E+000	-8.30214E-002	0.00000E+000	7	...........	0
	420	42.1	-8.01522E-002	2.63425E-006	0.00000E+000	-8.00213E-002	0.00000E+000	7	...........	0
	423	42.4	-7.70591E-002	2.61591E-006	0.00000E+000	-7.70212E-002	0.00000E+000	7	...........	0
	426	42.7	-7.41362E-002	2.67393E-006	0.00000E+000	-7.40211E-002	0.00000E+000	7	...........	0
	429	43	-7.10931E-002	2.74595E-006	0.00000E+000	-7.10210E-002	0.00000E+000	7	...........	0
	432	43.3	-6.81102E-002	2.73395E-006	0.00000E+000	-6.80208E-002	0.00000E+000	7	...........	0
	435	43.6	-6.51172E-002	2.82164E-006	0.00000E+000	-6.50207E-002	0.00000E+000	7	...........	0
	438	43.9	-6.21142E-002	2.79129E-006	0.00000E+000	-6.20206E-002	0.00000E+000	7	...........	0
	441	44.2	-5.90912E-002	2.67726E-006	0.00000E+000	-5.90205E-002	0.00000E+000	7	...........	0
	444	44.5	-5.61082E-002	2.99568E-006	0.00000E+000	-5.60203E-002	0.00000E+000	7	...........	0
	447	44.8	-5.31153E-002	2.99402E-006	0.00000E+000	-5.30202E-002	0.00000E+000	7	...........	0
	450	45.1	-5.01523E-002	3.06770E-006	0.00000E+000	-5.00201E-002	0.00000E+000	7	...........	0
	453	45.4	-4.70692E-002	3.19841E-006	0.00000E+000	-4.70200E-002	0.00000E+000	7	...........	0
	456	45.7	-4.40963E-002	3.18007E-006	0.00000E+000	-4.40199E-002	0.00000E+000	7	...........	0
	459	46	-4.11033E-002	3.20874E-006	0.00000E+000	-4.10197E-002	0.00000E+000	7	...........	0
	462	46.3	-3.81003E-002	3.12605E-006	0.00000E+000	-3.80196E-002	0.00000E+000	7	...........	0
	465	46.6	-3.50873E-002	3.37312E-006	0.00000E+000	-3.50195E-002	0.00000E+000	7	...........	0
	468	46.9	-3.21043E-002	3.46048E-006	0.00000E+000	-3.20194E-002	0.00000E+000	7	...........	0
	471	47.2	-2.90813E-002	3.33011E-006	0.00000E+000	-2.90192E-002	0.00000E+000	7	...........	0
	474	47.5	-2.61684E-002	3.57751E-006	0.00000E+000	-2.60191E-002	0.00000E+000	7	...........	0
	477	47.8	-2.30921E-002	3.81491E-006	0.00000E+000	-2.30190E-002	0.00000E+000	7	...........	0
	480	48.1	-2.00941E-002	3.71021E-006	0.00000E+000	-2.00189E-002	0.00000E+000	7	...........	0
	483	48.4	-1.71162E-002	3.80124E-006	0.00000E+000	-1.70187E-002	0.00000E+000	7	...........	0
	486	48.7	-1.41002E-002	3.73522E-006	0.00000E+000	-1.40186E-002	0.00000E+000	7	...........	0
	489	49	-1.11072E-002	3.87426E-006	0.00000E+000	-1.10185E-002	0.00000E+000	7	...........	0
	492	49.3	-8.10722E-003	4.04164E-006	0.00000E+000	-8.01838E-003	0.00000E+000	7	...........	0
	495	49.6	-5.09822E-003	4.14533E-006	0.00000E+000	-5.01826E-003	0.00000E+000	7	...........	0
	498	49.9	-2.11025E-003	4.24069E-006	0.00000E+000	-2.01814E-003	0.00000E+000	7	...........	0
	501	50.2	9.04753E-004	4.19601E-006	0.00000E+000	9.81987E-004	0.00000E+000	7	...........	0
	504	50.5	3.90874E-003	4.42808E-006	0.00000E+000	3.98211E-003	0.00000E+000	7	...........	0
	507	50.8	6.91574E-003	4.51477E-006	0.00000E+000	6.98223E-003	0.00000E+000	7	...........	0
	510	51.1	9.90972E-003	4.54944E-006	0.00000E+000	9.98235E-003	0.00000E+000	7	...........	0
	513	51.4	1.29317E-002	4.74250E-006	0.00000E+000	1.29825E-002	0.00000E+000	7	...........	0
	516	51.7	1.58426E-002	4.82319E-006	0.00000E+000	1.59826E-002	0.00000E+000	7	...........	0
	519	52	1.89167E-002	4.81785E-006	0.00000E+000	1.89827E-002	0.00000E+000	7	...........	0
	522	52.3	2.18966E-002	4.83819E-006	0.00000E+000	2.19828E-002	0.00000E+000	7	...........	0
	525	52.6	2.49056E-002	5.03691E-006	0.00000E+000	2.49830E-002	0.00000E+000	7	...........	0
	528	52.9	2.78954E-002	5.19996E-006	0.00000E+000	2.79831E-002	0.00000E+000	7	...........	0
	531	53.2	3.09384E-002	5.28798E-006	0.00000E+000	3.09832E-002	0.00000E+000	7	...........	0
	534	53.5	3.39114E-002	5.36200E-006	0.00000E+000	3.39833E-002	0.00000E+000	7	...........	0
	537	53.8	3.68643E-002	5.41768E-006	0.00000E+000	3.69835E-002	0.00000E+000	7	...........	0
	540	54.1	3.99073E-002	5.55572E-006	0.00000E+000	3.99836E-002	0.00000E+000	7	...........	0
	543	54.4	4.29203E-002	5.68142E-006	0.00000E+000	4.29837E-002	0.00000E+000	7	...........	0
	546	54.7	4.58933E-002	5.80379E-006	0.00000E+000	4.59838E-002	0.00000E+000	7	...........	0
	549	55	4.89463E-002	5.81913E-006	0.00000E+000	4.89840E-002	0.00000E+000	7	...........	0
	552	55.3	5.19393E-002	5.92215E-006	0.00000E+000	5.19841E-002	0.00000E+000	7	...........	0
	555	55.6	5.49223E-002	6.10654E-006	0.00000E+000	5.49842E-002	0.00000E+000	7	...........	0
	558	55.9	5.79453E-002	6.30893E-006	0.00000E+000	5.79843E-002	0.00000E+000	7	...........	0
	561	56.2	6.09183E-002	6.33393E-006	0.00000E+000	6.09844E-002	0.00000E+000	7	...........	0
	564	56.5	6.39313E-002	6.43196E-006	0.00000E+000	6.39846E-002	0.00000E+000	7	...........	0
	567	56.8	6.69242E-002	6.58767E-006	0.00000E+000	6.69847E-002	0.00000E+000	7	...........	0
	570	57.1	6.99472E-002	6.70737E-006	0.00000E+000	6.99848E-002	0.00000E+000	7	...........	0
	573	57.4	7.29402E-002	6.82307E-006	0.00000E+000	7.29849E-002	0.00000E+000	7	...........	0
	576	57.7	7.59332E-002	6.89576E-006	0.00000E+000	7.59851E-002	0.00000E+000	7	...........	0
	579	58	7.89562E-002	7.08948E-006	0.00000E+000	7.89852E-002	0.00000E+000	7	...........	0
	582	58.3	8.19692E-002	7.14882E-006	0.00000E+000	8.19853E-002	0.00000E+000	7	...........	0
	585	58.6	8.49422E-002	7.31520E-006	0.00000E+000	8.49854E-002	0.00000E+000	7	...........	0
	588	58.9	8.79552E-002	7.46991E-006	0.00000E+000	8.79855E-002	0.00000E+000	7	.....h.....	0
	591	59.2	9.09281E-002	7.52593E-006	0.00000E+000	9.09857E-002	0.00000E+000	7	...........	0
	594	59.5	9.39311E-002	7.76666E-006	0.00000E+000	9.39858E-002	0.00000E+000	7	.....h.....	0
	597	59.8	9.69341E-002	7.78067E-006	0.00000E+000	9.69859E-002	0.00000E+000	7	...........	0
	600	60.1	9.99271E-002	7.84468E-006	0.00000E+000	9.99860E-002	0.00000E+000	7	.....h.....	0
	603	60.4	1.02930E-001	8.26213E-006	0.00000E+000	1.02986E-001	0.00000E+000	7	.....h.....	0
	606	60.7	1.05903E-001	8.17777E-006	0.00000E+000	1.05986E-001	0.00000E+000	7	.....h.....	0
	609	61	1.08896E-001	8.42951E-006	0.00000E+000	1.08986E-001	0.00000E+000	7	.....h.....	0
	612	61.3	1.11869E-001	8.45285E-006	0.00000E+000	1.11987E-001	0.00000E+000	7	.....h.....	0
	615	61.6	1.14922E-001	8.75160E-006	0.00000E+000	1.14987E-001	0.00000E+000	7	.....h.....	0
	618	61.9	1.17905E-001	8.74826E-006	0.00000E+000	1.17987E-001	0.00000E+000	7	.....h.....	0
	621	62.2	1.20898E-001	8.98000E-006	0.00000E+000	1.20987E-001	0.00000E+000	7	.....h.....	0
	624	62.5	1.23881E-001	8.43586E-006	0.00000E+000	1.23987E-001	0.00000E+000	8	...........	0
	627	62.8	1.26884E-001	8.28919E-006	0.00000E+000	1.26987E-001	0.00000E+000	8	...........	0
	630	63.1	1.29867E-001	8.47587E-006	0.00000E+000	1.29987E-001	0.00000E+000	8	...........	0
	633	63.4	1.32840E-001	8.75588E-006	0.00000E+000	1.32987E-001	0.00000E+000	8	...........	0
	636	63.7	1.35923E-001	8.80922E-006	0.00000E+000	1.35988E-001	0.00000E+000	8	...........	0
	639	64	1.38866E-001	9.03590E-006	0.00000E+000	1.38988E-001	0.00000E+000	8	...........	0
	642	64.3	1.41879E-001	9.16258E-006	0.00000E+000	1.41988E-001	0.00000E+000	8	...........	0
	645	64.6	1.44892E-001	9.87930E-006	0.00000E+000	1.44988E-001	0.00000E+000	8	...........	0
	648	64.9	1.47905E-001	9.55927E-006	0.00000E+000	1.47988E-001	0.00000E+000	8	...........	0
	651	65.2	1.50888E-001	1.00226E-005	0.00000E+000	1.50988E-001	0.00000E+000	8	...........	0
	654	65.5	1.53891E-001	1.04593E-005	0.00000E+000	1.53988E-001	0.00000E+000	8	...........	0
	657	65.8	1.56864E-001	1.04760E-005	0.00000E+000	1.56988E-001	0.00000E+000	8	...........	0
	660	66.1	1.59877E-001	1.06794E-005	0.00000E+000	1.59988E-001	0.00000E+000	8	...........	0
	663	66.4	1.62890E-001	1.05360E-005	0.00000E+000	1.62989E-001	0.00000E+000	8	...........	0
	666	66.7	1.65903E-001	1.06560E-005	0.00000E+000	1.65989E-001	0.00000E+000	8	...........	0
	669	67	1.68866E-001	1.10894E-005	0.00000E+000	1.68989E-001	0.00000E+000	8	...........	0
	672	67.3	1.71909E-001	1.09760E-005	0.00000E+000	1.71989E-001	0.00000E+000	8	...........	0
	675	67.6	1.74862E-001	1.13361E-005	0.00000E+000	1.74989E-001	0.00000E+000	8	...........	0
	678	67.9	1.77895E-001	1.10060E-005	0.00000E+000	1.77989E-001	0.00000E+000	8	...........	0
	681	68.2	1.80878E-001	1.10494E-005	0.00000E+000	1.80989E-001	0.00000E+000	8	...........	0
	684	68.5	1.83901E-001	1.13761E-005	0.00000E+000	1.83989E-001	0.00000E+000	8	...........	0
	687	68.8	1.86864E-001	1.14227E-005	0.00000E+000	1.86990E-001	0.00000E+000	8	...........	0
	690	69.1	1.89887E-001	1.16161E-005	0.00000E+000	1.89990E-001	0.00000E+000	8	...........	0
	693	69.4	1.92910E-001	1.14861E-005	0.00000E+000	1.92990E-001	0.00000E+000	8	...........	0
	696	69.7	1.95873E-001	1.18294E-005	0.00000E+000	1.95990E-001	0.00000E+000	8	...........	0
	699	70	1.98896E-001	1.18194E-005	0.00000E+000	1.98990E-001	0.00000E+000	8	...........	0
	702	70.3	2.01919E-001	1.15794E-005	0.00000E+000	2.01990E-001	0.00000E+000	8	...........	0
	705	70.6	2.04882E-001	1.20061E-005	0.00000E+000	2.04990E-001	0.00000E+000	8	...........	0
	708	70.9	2.07885E-001	1.18394E-005	0.00000E+000	2.07990E-001	0.00000E+000	8	...........	0
	711	71.2	2.10847E-001	1.16961E-005	0.00000E+000	2.10991E-001	0.00000E+000	8	...........	0
	714	71.5	2.13891E-001	1.21795E-005	0.00000E+000	2.13991E-001	0.00000E+000	8	...........	0
	717	71.8	2.16893E-001	1.19228E-005	0.00000E+000	2.16991E-001	0.00000E+000	8	...........	0
	720	72.1	2.19846E-001	1.19161E-005	0.00000E+000	2.19991E-001	0.00000E+000	8	...........	0
	723	72.4	2.22889E-001	1.15561E-005	0.00000E+000	2.22991E-001	0.00000E+000	8	...........	0
	726	72.7	2.25892E-001	1.21361E-005	0.00000E+000	2.25991E-001	0.00000E+000	8	...........	0
	729	73	2.28865E-001	1.22528E-005	0.00000E+000	2.28991E-001	0.00000E+000	8	...........	0
	732	73.3	2.31898E-001	1.20494E-005	0.00000E+000	2.31991E-001	0.00000E+000	8	...........	0
	735	73.6	2.34891E-001	1.26395E-005	0.00000E+000	2.34992E-001	0.00000E+000	8	...........	0
	738	73.9	2.37884E-001	1.24061E-005	0.00000E+000	2.37992E-001	0.00000E+000	8	...........	0
	741	74.2	2.40927E-001	1.29462E-005	0.00000E+000	2.40992E-001	0.00000E+000	8	...........	0
	744	74.5	2.43860E-001	1.30228E-005	0.00000E+000	2.43992E-001	0.00000E+000	8	...........	0
	747	74.8	2.46863E-001	1.27528E-005	0.00000E+000	2.46992E-001	0.00000E+000	8	...........	0
	750	75.1	2.49876E-001	1.33929E-005	0.00000E+000	2.49992E-001	0.00000E+000	8	...........	0
	753	75.4	2.52869E-001	1.30629E-005	0.00000E+000	2.52992E-001	0.00000E+000	8	...........	0
	756	75.7	2.55852E-001	1.32329E-005	0.00000E+000	2.55992E-001	0.00000E+000	8	...........	0
	759	76	2.58845E-001	1.34829E-005	0.00000E+000	2.58993E-001	0.00000E+000	8	...........	0
	762	76.3	2.61838E-001	1.33329E-005	0.00000E+000	2.61993E-001	0.00000E+000	8	...........	0
	765	76.6	2.64851E-001	1.39696E-005	0.00000E+000	2.64993E-001	0.00000E+000	8	...........	0
	768	76.9	2.68155E-001	1.36929E-005	0.00000E+000	2.67993E-001	0.00000E+000	8	...........	0
	771	77.2	2.71058E-001	1.37696E-005	0.00000E+000	2.70993E-001	0.00000E+000	8	...........	0
	774	77.5	2.74161E-001	1.42696E-005	0.00000E+000	2.73993E-001	0.00000E+000	8	...........	0
	777	77.8	2.77164E-001	1.40663E-005	0.00000E+000	2.76993E-001	0.00000E+000	8	...........	0
	780	78.1	2.80167E-001	1.44496E-005	0.00000E+000	2.79993E-001	0.00000E+000	8	...........	0
	783	78.4	2.83070E-001	1.40429E-005	0.00000E+000	2.82993E-001	0.00000E+000	8	...........	0
	786	78.7	2.86073E-001	1.45096E-005	0.00000E+000	2.85994E-001	0.00000E+000	8	...........	0
	789	79	2.89076E-001	1.44529E-005	0.00000E+000	2.88994E-001	0.00000E+000	8	...........	0
	792	79.3	2.92079E-001	1.41896E-005	0.00000E+000	2.91994E-001	0.00000E+000	8	...........	0
	795	79.6	2.95082E-001	1.44529E-005	0.00000E+000	2.94994E-001	0.00000E+000	8	...........	0
	798	79.9	2.98185E-001	1.42263E-005	0.00000E+000	2.97994E-001	0.00000E+000	8	...........	0
	801	80.2	3.01188E-001	1.45430E-005	0.00000E+000	3.00994E-001	0.00000E+000	8	...........	0
	804	80.5	3.04091E-001	1.41329E-005	0.00000E+000	3.03994E-001	0.00000E+000	8	...........	0
	807	80.8	3.07094E-001	1.43229E-005	0.00000E+000	3.06994E-001	0.00000E+000	8	...........	0
	810	81.1	3.10097E-001	1.44496E-005	0.00000E+000	3.09995E-001	0.00000E+000	8	...........	0
	813	81.4	3.13100E-001	1.39329E-005	0.00000E+000	3.12995E-001	0.00000E+000	8	...........	0
	816	81.7	3.16103E-001	1.40829E-005	0.00000E+000	3.15995E-001	0.00000E+000	8	...........	0
	819	82	3.19106E-001	1.41663E-005	0.00000E+000	3.18995E-001	0.00000E+000	8	...........	0
	822	82.3	3.22109E-001	1.42729E-005	0.00000E+000	3.21995E-001	0.00000E+000	8	...........	0
	825	82.6	3.25112E-001	1.49830E-005	0.00000E+000	3.24995E-001	0.00000E+000	8	...........	0
	828	82.9	3.28115E-001	1.47396E-005	0.00000E+000	3.27995E-001	0.00000E+000	8	...........	0
	831	83.2	3.31118E-001	1.46096E-005	0.00000E+000	3.30995E-001	0.00000E+000	8	...........	0
	834	83.5	3.34121E-001	1.48363E-005	0.00000E+000	3.33996E-001	0.00000E+000	8	...........	0
	837	83.8	3.37224E-001	1.47396E-005	0.00000E+000	3.36996E-001	0.00000E+000	8	...........	0
	840	84.1	3.40127E-001	1.51630E-005	0.00000E+000	3.39996E-001	0.00000E+000	8	...........	0
	843	84.4	3.43130E-001	1.50897E-005	0.00000E+000	3.42996E-001	0.00000E+000	8	...........	0
	846	84.7	3.46033E-001	1.54497E-005	0.00000E+000	3.45996E-001	0.00000E+000	8	...........	0
	849	85	3.49136E-001	1.54530E-005	0.00000E+000	3.48996E-001	0.00000E+000	8	...........	0
	852	85.3	3.52039E-001	1.53630E-005	0.00000E+000	3.51996E-001	0.00000E+000	8	...........	0
	855	85.6	3.55042E-001	1.56630E-005	0.00000E+000	3.54996E-001	0.00000E+000	8	...........	0
	858	85.9	3.58145E-001	1.52763E-005	0.00000E+000	3.57997E-001	0.00000E+000	8	...........	0
	861	86.2	3.61148E-001	1.56664E-005	0.00000E+000	3.60997E-001	0.00000E+000	8	...........	0
	864	86.5	3.64151E-001	1.54764E-005	0.00000E+000	3.63997E-001	0.00000E+000	8	...........	0
	867	86.8	3.67154E-001	1.53863E-005	0.00000E+000	3.66997E-001	0.00000E+000	8	...........	0
	870	87.1	3.70056E-001	1.56030E-005	0.00000E+000	3.69997E-001	0.00000E+000	8	...........	0
	873	87.4	3.73160E-001	1.55097E-005	0.00000E+000	3.72997E-001	0.00000E+000	8	...........	0
	876	87.7	3.76162E-001	1.58730E-005	0.00000E+000	3.75997E-001	0.00000E+000	8	...........	0
	879	88	3.79166E-001	1.57864E-005	0.00000E+000	3.78997E-001	0.00000E+000	8	...........	0
	882	88.3	3.82068E-001	1.58597E-005	0.00000E+000	3.81998E-001	0.00000E+000	8	...........	0
	885	88.6	3.85171E-001	1.58730E-005	0.00000E+000	3.84998E-001	0.00000E+000	8	...........	0
	888	88.9	3.88074E-001	1.58097E-005	0.00000E+000	3.87998E-001	0.00000E+000	8	...........	0
	891	89.2	3.91177E-001	1.56597E-005	0.00000E+000	3.90998E-001	0.00000E+000	8	...........	0
	894	89.5	3.94180E-001	1.57930E-005	0.00000E+000	3.93998E-001	0.00000E+000	8	...........	0
	897	89.8	3.97083E-001	1.59897E-005	0.00000E+000	3.96998E-001	0.00000E+000	8	...........	0
	900	90.1	4.00086E-001	1.60431E-005	0.00000E+000	3.99998E-001	0.00000E+000	8	...........	0
	903	90.4	4.03390E-001	1.60931E-005	0.00000E+000	4.02998E-001	0.00000E+000	8	...........	0
	906	90.7	4.06192E-001	1.62031E-005	0.00000E+000	4.05999E-001	0.00000E+000	8	...........	0
	909	91	4.09195E-001	1.63531E-005	0.00000E+000	4.08999E-001	0.00000E+000	8	...........	0
	912	91.3	4.12198E-001	1.63964E-005	0.00000E+000	4.11999E-001	0.00000E+000	8	...........	0
	915	91.6	4.15101E-001	1.64564E-005	0.00000E+000	4.14999E-001	0.00000E+000	8	...........	0
	918	91.9	4.18104E-001	1.66531E-005	0.00000E+000	4.17999E-001	0.00000E+000	8	...........	0
	921	92.2	4.21107E-001	1.68798E-005	0.00000E+000	4.20999E-001	0.00000E+000	8	...........	0
	924	92.5	4.24110E-001	1.68965E-005	0.00000E+000	4.23999E-001	0.00000E+000	8	...........	0
	927	92.8	4.27213E-001	1.70565E-005	0.00000E+000	4.26999E-001	0.00000E+000	8	...........	0
	930	93.1	4.30216E-001	1.72465E-005	0.00000E+000	4.30000E-001	0.00000E+000	8	...........	0
	933	93.4	4.33119E-001	1.75098E-005	0.00000E+000	4.33000E-001	0.00000E+000	8	...........	0
	936	93.7	4.36122E-001	1.77065E-005	0.00000E+000	4.36000E-001	0.00000E+000	8	...........	0
	939	94	4.39125E-001	1.79365E-005	0.00000E+000	4.39000E-001	0.00000E+000	8	...........	0
	942	94.3	4.42328E-001	1.78232E-005	0.00000E+000	4.42000E-001	0.00000E+000	8	...........	0
	945	94.6	4.45031E-001	1.84099E-005	0.00000E+000	4.45000E-001	0.00000E+000	8	...........	0
	948	94.9	4.48034E-001	1.86632E-005	0.00000E+000	4.48000E-001	0.00000E+000	8	...........	0
	951	95.2	4.51137E-001	1.87933E-005	0.00000E+000	4.51000E-001	0.00000E+000	8	...........	0
	954	95.5	4.54140E-001	1.91199E-005	0.00000E+000	4.54001E-001	0.00000E+000	8	...........	0
	957	95.8	4.57043E-001	1.92666E-005	0.00000E+000	4.57001E-001	0.00000E+000	8	...........	0
	960	96.1	4.60146E-001	1.96933E-005	0.00000E+000	4.60001E-001	0.00000E+000	8	...........	0
	963	96.4	4.63149E-001	1.96967E-005	0.00000E+000	4.63001E-001	0.00000E+000	8	...........	0
	966	96.7	4.66152E-001	1.97233E-005	0.00000E+000	4.66001E-001	0.00000E+000	8	...........	0
	969	97	4.69255E-001	1.98767E-005	0.00000E+000	4.69001E-001	0.00000E+000	8	...........	0
	972	97.3	4.72158E-001	2.01400E-005	0.00000E+000	4.72001E-001	0.00000E+000	8	...........	0
	975	97.6	4.75161E-001	2.04634E-005	0.00000E+000	4.75001E-001	0.00000E+000	8	...........	0
	978	97.9	4.78164E-001	2.03400E-005	0.00000E+000	4.78001E-001	0.00000E+000	8	...........	0
	981	98.2	4.81267E-001	2.05700E-005	0.00000E+000	4.81002E-001	0.00000E+000	8	...........	0
	984	98.5	4.84070E-001	2.04134E-005	0.00000E+000	4.84002E-001	0.00000E+000	8	...........	0
	987	98.8	4.87173E-001	2.09201E-005	0.00000E+000	4.87002E-001	0.00000E+000	8	...........	0
	990	99.1	4.90276E-001	2.11368E-005	0.00000E+000	4.90002E-001	0.00000E+000	8	...........	0
	993	99.4	4.93179E-001	2.18635E-005	0.00000E+000	4.93002E-001	0.00000E+000	8	...........	0
	996	99.7	4.96182E-001	2.21768E-005	0.00000E+000	4.96002E-001	0.00000E+000	8	...........	0
	999	100	4.99085E-001	2.30669E-005	0.00000E+000	4.99002E-001	0.00000E+000	8	...........	0
	1002	100.3	5.02288E-001	2.36436E-005	0.00000E+000	5.02002E-001	0.00000E+000	8	...........	0
	1005	100.6	5.05191E-001	2.38403E-005	0.00000E+000	5.05003E-001	0.00000E+000	8	...........	0
	1008	100.9	5.08194E-001	2.40470E-005	0.00000E+000	5.08003E-001	0.00000E+000	8	...........	0
	1011	101.2	5.11197E-001	2.42136E-005	0.00000E+000	5.11003E-001	0.00000E+000	8	...........	0
	1014	101.5	5.14100E-001	2.43170E-005	0.00000E+000	5.14003E-001	0.00000E+000	8	...........	0
	1017	101.8	5.17203E-001	2.43570E-005	0.00000E+000	5.17003E-001	0.00000E+000	8	...........	0
	1020	102.1	5.20206E-001	2.45070E-005	0.00000E+000	5.20003E-001	0.00000E+000	8	...........	0
	1023	102.4	5.23109E-001	2.50070E-005	0.00000E+000	5.23003E-001	0.00000E+000	8	...........	0
	1026	102.7	5.26212E-001	2.58271E-005	0.00000E+000	5.26003E-001	0.00000E+000	8	...........	0
	1029	103	5.29115E-001	2.66605E-005	0.00000E+000	5.29004E-001	0.00000E+000	8	...........	0
	1032	103.3	5.32218E-001	2.72805E-005	0.00000E+000	5.32004E-001	0.00000E+000	8	...........	0
	1035	103.6	5.35121E-001	2.73305E-005	0.00000E+000	5.35004E-001	0.00000E+000	8	...........	0
	1038	103.9	5.38224E-001	2.75739E-005	0.00000E+000	5.38004E-001	0.00000E+000	8	...........	0
	1041	104.2	5.41227E-001	2.82772E-005	0.00000E+000	5.41004E-001	0.00000E+000	8	...........	0
	1044	104.5	5.44230E-001	2.82939E-005	0.00000E+000	5.44004E-001	0.00000E+000	8	...........	0
	1047	104.8	5.47133E-001	2.82939E-005	0.00000E+000	5.47004E-001	0.00000E+000	8	...........	0
	1050	105.1	5.50136E-001	2.88606E-005	0.00000E+000	5.50004E-001	0.00000E+000	8	...........	0
	1053	105.4	5.53239E-001	2.91706E-005	0.00000E+000	5.53005E-001	0.00000E+000	8	...........	0
	1056	105.7	5.56142E-001	3.01274E-005	0.00000E+000	5.56005E-001	0.00000E+000	8	...........	0
	1059	106	5.59245E-001	3.07874E-005	0.00000E+000	5.59005E-001	0.00000E+000	8	...........	0
	1062	106.3	5.62248E-001	3.19775E-005	0.00000E+000	5.62005E-001	0.00000E+000	8	...........	0
	1065	106.6	5.65251E-001	3.31309E-005	0.00000E+000	5.65005E-001	0.00000E+000	8	...........	0
	1068	106.9	5.68254E-001	3.42043E-005	0.00000E+000	5.68005E-001	0.00000E+000	8	...........	0
	1071	107.2	5.71257E-001	3.46677E-005	0.00000E+000	5.71005E-001	0.00000E+000	8	...........	0
	1074	107.5	5.74160E-001	3.52977E-005	0.00000E+000	5.74005E-001	0.00000E+000	8	...........	0
	1077	107.8	5.77163E-001	3.61178E-005	0.00000E+000	5.77006E-001	0.00000E+000	8	...........	0
	1080	108.1	5.80166E-001	3.73779E-005	0.00000E+000	5.80006E-001	0.00000E+000	8	...........	0
	1083	108.4	5.83169E-001	3.81746E-005	0.00000E+000	5.83006E-001	0.00000E+000	8	...........	0
	1086	108.7	5.86172E-001	3.93014E-005	0.00000E+000	5.86006E-001	0.00000E+000	8	...........	0
	1089	109	5.89275E-001	4.02481E-005	0.00000E+000	5.89006E-001	0.00000E+000	8	...........	0
	1092	109.3	5.92178E-001	4.12815E-005	0.00000E+000	5.92006E-001	0.00000E+000	8	...........	0
	1095	109.6	5.95080E-001	4.23049E-005	0.00000E+000	5.95006E-001	0.00000E+000	8	...........	0
	1098	109.9	5.98184E-001	4.36483E-005	0.00000E+000	5.98006E-001	0.00000E+000	8	...........	0
	1100	110.1	6.00186E-001	4.44550E-005	0.00000E+000	6.00006E-001	0.00000E+000	8	...........	0