File: LSV ZFO/ZFO_h300_dark_reator.DTA
EXPLAIN
TAG	LSV
TITLE	LABEL	Linear Sweep Voltammetry	Test &Identifier
DATE	LABEL	7/5/2024	Date
TIME	LABEL	17:42:23	Time
NOTES	NOTES	1	&Notes...

PSTAT	PSTAT	L3FNano	Potentiostat
VINIT	POTEN	-5.00000E-001	F	&Initial E (V)
VFINAL	POTEN	6.00000E-001	F	&Final E (V)
SCANRATE	QUANT	9.99998E+000	&Scan Rate (mV/s)
STEPSIZE	QUANT	1.00000E+000	St&ep Size (mV)
IMODE	SELECTOR	0	I/E Range &Mode
IRANGE	QUANT	1.00000E+001	&Max Current (mA)
AREA	QUANT	1.00000E+000	Electrode &Area (cm^2)
ELECTRODETYPE	SELECTOR	0	Electrode Type
STRIPPING	TOGGLE	F	Used for Stripping
POLARITY	TOGGLE	F	Signal Polarity
CONDIT	TWOPARAM	F	1.50000E+001	0.00000E+000	Conditionin&g	Time(s)	E(V)
DELAY	TWOPARAM	F	3.00000E+001	0.00000E+000	Init. De&lay	Time(s)	Stab.(mV/s)
EQDELAY	QUANT	5.00000E+000	Equil. &Time (s)
IRCOMP	SELECTOR	0	IRCom&p
PFCOR	QUANT	5.00000E+001	PF Corr. (ohm)
SAMPLINGMODE	SELECTOR	0	Sampling &Mode
EOC	QUANT	0	Open Circuit (V)
PSTATMODEL	IQUANT	48	Pstat Model
PSTATSECTION	LABEL	IFC1000-07082	Pstat Section
PSTATSERIALNO	LABEL	07082	Pstat Serial Number
CTRLMODE	IQUANT	1	Control Mode
IESTAB	IQUANT	2	I/E Stability
CASPEED	IQUANT	2	Control Amp Speed
CONVENTION	IQUANT	1	Current Convention
ICHRANGE	IQUANT	2	Ich Range
ICHRANGEMODE	TOGGLE	F	Ich Auto Range
ICHOFFSETENABLE	TOGGLE	F	Ich Offset Enable
ICHOFFSET	QUANT	0	Ich Offset (V)
ICHFILTER	IQUANT	3	Ich Filter
VCHRANGE	IQUANT	2	Vch Range
VCHRANGEMODE	TOGGLE	T	Vch Auto Range
VCHOFFSETENABLE	TOGGLE	F	Vch Offset Enable
VCHOFFSET	QUANT	0	Vch Offset (V)
VCHFILTER	IQUANT	3	Vch Filter
IERANGELOWERLIMIT	IQUANT	4	I/E Range Lower Limit
IERANGEMODE	TOGGLE	T	I/E AutoRange
IERANGE	IQUANT	11	I/E Range
ACHSELECT	IQUANT	4	Ach Select
CABLEID	IQUANT	14	Cable ID
DCCALDATE	LABEL	7/3/2024	DC Calibration Date
ACCALDATE	LABEL	7/3/2024	AC Calibration Date
FRAMEWORKVERSION	QUANT	6.24	Framework Version
INSTRUMENTVERSION	LABEL	3.28	Instrument Version
CURVE	TABLE	1101
	Pt	T	Vf	Im	Vu	Sig	Ach	IERange	Over	Cycle
	#	s	V vs. Ref.	A	V	V	V	#	bits	#
	0	0.1	-5.00010E-001	-2.13536E-005	0.00000E+000	-4.99988E-001	0.00000E+000	11	...........	0
	3	0.4	-4.97007E-001	-2.49431E-005	0.00000E+000	-4.96988E-001	0.00000E+000	8	...........	0
	6	0.7	-4.93903E-001	-2.34197E-005	0.00000E+000	-4.93988E-001	0.00000E+000	8	...........	0
	9	1	-4.91101E-001	-2.19729E-005	0.00000E+000	-4.90988E-001	0.00000E+000	8	...........	0
	12	1.3	-4.87998E-001	-2.07528E-005	0.00000E+000	-4.87988E-001	0.00000E+000	8	...........	0
	15	1.6	-4.84995E-001	-1.94828E-005	0.00000E+000	-4.84988E-001	0.00000E+000	8	...........	0
	18	1.9	-4.81992E-001	-1.84493E-005	0.00000E+000	-4.81988E-001	0.00000E+000	8	...........	0
	21	2.2	-4.78989E-001	-1.73626E-005	0.00000E+000	-4.78988E-001	0.00000E+000	8	...........	0
	24	2.5	-4.75986E-001	-1.63225E-005	0.00000E+000	-4.75987E-001	0.00000E+000	8	...........	0
	27	2.8	-4.73083E-001	-1.53925E-005	0.00000E+000	-4.72987E-001	0.00000E+000	8	...........	0
	30	3.1	-4.69980E-001	-1.44257E-005	0.00000E+000	-4.69987E-001	0.00000E+000	8	...........	0
	33	3.4	-4.66977E-001	-1.36657E-005	0.00000E+000	-4.66987E-001	0.00000E+000	8	...........	0
	36	3.7	-4.64074E-001	-1.28090E-005	0.00000E+000	-4.63987E-001	0.00000E+000	8	...........	0
	39	4	-4.60971E-001	-1.20556E-005	0.00000E+000	-4.60987E-001	0.00000E+000	8	...........	0
	42	4.3	-4.57968E-001	-1.13389E-005	0.00000E+000	-4.57987E-001	0.00000E+000	8	...........	0
	45	4.6	-4.55065E-001	-1.06955E-005	0.00000E+000	-4.54987E-001	0.00000E+000	8	...........	0
	48	4.9	-4.52062E-001	-1.00954E-005	0.00000E+000	-4.51987E-001	0.00000E+000	8	...........	0
	51	5.2	-4.48959E-001	-9.52206E-006	0.00000E+000	-4.48986E-001	0.00000E+000	8	...........	0
	54	5.5	-4.46056E-001	-8.99202E-006	0.00000E+000	-4.45986E-001	0.00000E+000	8	...........	0
	57	5.8	-4.42953E-001	-8.43532E-006	0.00000E+000	-4.42986E-001	0.00000E+000	8	...........	0
	60	6.1	-4.39950E-001	-7.87861E-006	0.00000E+000	-4.39986E-001	0.00000E+000	8	...........	0
	63	6.4	-4.36947E-001	-7.41984E-006	0.00000E+000	-4.36986E-001	0.00000E+000	7	...........	0
	66	6.7	-4.34044E-001	-6.89803E-006	0.00000E+000	-4.33986E-001	0.00000E+000	7	...........	0
	69	7	-4.30941E-001	-6.48259E-006	0.00000E+000	-4.30986E-001	0.00000E+000	7	...........	0
	72	7.3	-4.27938E-001	-6.06914E-006	0.00000E+000	-4.27986E-001	0.00000E+000	7	...........	0
	75	7.6	-4.25035E-001	-5.70037E-006	0.00000E+000	-4.24985E-001	0.00000E+000	7	...........	0
	78	7.9	-4.21932E-001	-5.34494E-006	0.00000E+000	-4.21985E-001	0.00000E+000	7	...........	0
	81	8.2	-4.18929E-001	-4.95350E-006	0.00000E+000	-4.18985E-001	0.00000E+000	7	...........	0
	84	8.5	-4.15926E-001	-4.65308E-006	0.00000E+000	-4.15985E-001	0.00000E+000	7	...........	0
	87	8.8	-4.13023E-001	-4.33700E-006	0.00000E+000	-4.12985E-001	0.00000E+000	7	...........	0
	90	9.1	-4.10020E-001	-4.02891E-006	0.00000E+000	-4.09985E-001	0.00000E+000	7	...........	0
	93	9.4	-4.07017E-001	-3.78751E-006	0.00000E+000	-4.06985E-001	0.00000E+000	7	...........	0
	96	9.7	-4.04014E-001	-3.50110E-006	0.00000E+000	-4.03985E-001	0.00000E+000	7	...........	0
	99	10	-4.01011E-001	-3.26137E-006	0.00000E+000	-4.00984E-001	0.00000E+000	7	...........	0
	102	10.3	-3.98008E-001	-3.05698E-006	0.00000E+000	-3.97984E-001	0.00000E+000	7	...........	0
	105	10.6	-3.95005E-001	-2.78390E-006	0.00000E+000	-3.94984E-001	0.00000E+000	7	...........	0
	108	10.9	-3.92002E-001	-2.61252E-006	0.00000E+000	-3.91984E-001	0.00000E+000	7	...........	0
	111	11.2	-3.88999E-001	-2.43014E-006	0.00000E+000	-3.88984E-001	0.00000E+000	7	...........	0
	114	11.5	-3.85996E-001	-2.20008E-006	0.00000E+000	-3.85984E-001	0.00000E+000	7	...........	0
	117	11.8	-3.82993E-001	-2.04670E-006	0.00000E+000	-3.82984E-001	0.00000E+000	7	...........	0
	120	12.1	-3.79990E-001	-1.89933E-006	0.00000E+000	-3.79984E-001	0.00000E+000	7	...........	0
	123	12.4	-3.76987E-001	-1.75596E-006	0.00000E+000	-3.76983E-001	0.00000E+000	7	...........	0
	126	12.7	-3.73984E-001	-1.57491E-006	0.00000E+000	-3.73983E-001	0.00000E+000	7	...........	0
	129	13	-3.70981E-001	-1.43253E-006	0.00000E+000	-3.70983E-001	0.00000E+000	7	...........	0
	132	13.3	-3.67978E-001	-1.34084E-006	0.00000E+000	-3.67983E-001	0.00000E+000	7	...........	0
	135	13.6	-3.64975E-001	-1.19613E-006	0.00000E+000	-3.64983E-001	0.00000E+000	7	...........	0
	138	13.9	-3.62072E-001	-1.11811E-006	0.00000E+000	-3.61983E-001	0.00000E+000	7	...........	0
	141	14.2	-3.58969E-001	-1.01742E-006	0.00000E+000	-3.58983E-001	0.00000E+000	7	...........	0
	144	14.5	-3.55966E-001	-8.90050E-007	0.00000E+000	-3.55983E-001	0.00000E+000	7	...........	0
	147	14.8	-3.53063E-001	-7.89023E-007	0.00000E+000	-3.52982E-001	0.00000E+000	7	...........	0
	150	15.1	-3.50060E-001	-7.10001E-007	0.00000E+000	-3.49982E-001	0.00000E+000	7	...........	0
	153	15.4	-3.46957E-001	-6.17309E-007	0.00000E+000	-3.46982E-001	0.00000E+000	7	...........	0
	156	15.7	-3.43954E-001	-5.80632E-007	0.00000E+000	-3.43982E-001	0.00000E+000	7	...........	0
	159	16	-3.40951E-001	-4.88940E-007	0.00000E+000	-3.40982E-001	0.00000E+000	7	...........	0
	162	16.3	-3.37948E-001	-4.28590E-007	0.00000E+000	-3.37982E-001	0.00000E+000	7	...........	0
	165	16.6	-3.35045E-001	-3.59238E-007	0.00000E+000	-3.34982E-001	0.00000E+000	7	...........	0
	168	16.9	-3.31942E-001	-2.69547E-007	0.00000E+000	-3.31982E-001	0.00000E+000	7	...........	0
	171	17.2	-3.29039E-001	-2.40539E-007	0.00000E+000	-3.28982E-001	0.00000E+000	7	...........	0
	174	17.5	-3.26036E-001	-2.02862E-007	0.00000E+000	-3.25981E-001	0.00000E+000	7	...........	0
	177	17.8	-3.23134E-001	-1.07169E-007	0.00000E+000	-3.22981E-001	0.00000E+000	7	...........	0
	180	18.1	-3.19930E-001	-1.00834E-007	0.00000E+000	-3.19981E-001	0.00000E+000	7	...........	0
	183	18.4	-3.17027E-001	-7.34928E-008	0.00000E+000	-3.16981E-001	0.00000E+000	7	...........	0
	186	18.7	-3.14125E-001	-1.01421E-008	0.00000E+000	-3.13981E-001	0.00000E+000	7	...........	0
	189	19	-3.11021E-001	5.52891E-009	0.00000E+000	-3.10981E-001	0.00000E+000	7	...........	0
	192	19.3	-3.08018E-001	5.32087E-008	0.00000E+000	-3.07981E-001	0.00000E+000	7	...........	0
	195	19.6	-3.05015E-001	6.82128E-008	0.00000E+000	-3.04981E-001	0.00000E+000	7	...........	0
	198	19.9	-3.02013E-001	9.82210E-008	0.00000E+000	-3.01980E-001	0.00000E+000	7	...........	0
	201	20.2	-2.99010E-001	1.37899E-007	0.00000E+000	-2.98980E-001	0.00000E+000	7	...........	0
	204	20.5	-2.96007E-001	1.44901E-007	0.00000E+000	-2.95980E-001	0.00000E+000	7	...........	0
	207	20.8	-2.93104E-001	2.00916E-007	0.00000E+000	-2.92980E-001	0.00000E+000	7	...........	0
	210	21.1	-2.90001E-001	2.22589E-007	0.00000E+000	-2.89980E-001	0.00000E+000	7	...........	0
	213	21.4	-2.86897E-001	2.45261E-007	0.00000E+000	-2.86980E-001	0.00000E+000	7	...........	0
	216	21.7	-2.84095E-001	2.72269E-007	0.00000E+000	-2.83980E-001	0.00000E+000	7	...........	0
	219	22	-2.81092E-001	2.68268E-007	0.00000E+000	-2.80980E-001	0.00000E+000	7	...........	0
	222	22.3	-2.78089E-001	2.61933E-007	0.00000E+000	-2.77979E-001	0.00000E+000	7	...........	0
	225	22.6	-2.74986E-001	3.16614E-007	0.00000E+000	-2.74979E-001	0.00000E+000	7	...........	0
	228	22.9	-2.71983E-001	3.26284E-007	0.00000E+000	-2.71979E-001	0.00000E+000	7	...........	0
	231	23.2	-2.68880E-001	3.02611E-007	0.00000E+000	-2.68979E-001	0.00000E+000	7	...........	0
	234	23.5	-2.65977E-001	3.46956E-007	0.00000E+000	-2.65979E-001	0.00000E+000	7	...........	0
	237	23.8	-2.62974E-001	3.85967E-007	0.00000E+000	-2.62979E-001	0.00000E+000	7	...........	0
	240	24.1	-2.59971E-001	4.04639E-007	0.00000E+000	-2.59979E-001	0.00000E+000	7	...........	0
	243	24.4	-2.57068E-001	3.93302E-007	0.00000E+000	-2.56979E-001	0.00000E+000	7	...........	0
	246	24.7	-2.53865E-001	3.85967E-007	0.00000E+000	-2.53978E-001	0.00000E+000	7	...........	0
	249	25	-2.50962E-001	4.28312E-007	0.00000E+000	-2.50978E-001	0.00000E+000	7	...........	0
	252	25.3	-2.47959E-001	4.13974E-007	0.00000E+000	-2.47978E-001	0.00000E+000	7	...........	0
	255	25.6	-2.44956E-001	4.35981E-007	0.00000E+000	-2.44978E-001	0.00000E+000	7	...........	0
	258	25.9	-2.41993E-001	4.28979E-007	0.00000E+000	-2.41978E-001	0.00000E+000	7	...........	0
	261	26.2	-2.38980E-001	4.44650E-007	0.00000E+000	-2.38978E-001	0.00000E+000	7	...........	0
	264	26.5	-2.35997E-001	4.29645E-007	0.00000E+000	-2.35978E-001	0.00000E+000	7	...........	0
	267	26.8	-2.33014E-001	4.20643E-007	0.00000E+000	-2.32978E-001	0.00000E+000	7	...........	0
	270	27.1	-2.29981E-001	4.75325E-007	0.00000E+000	-2.29977E-001	0.00000E+000	7	...........	0
	273	27.4	-2.26978E-001	4.55986E-007	0.00000E+000	-2.26977E-001	0.00000E+000	7	...........	0
	276	27.7	-2.23985E-001	4.52985E-007	0.00000E+000	-2.23977E-001	0.00000E+000	7	...........	0
	279	28	-2.20992E-001	4.11974E-007	0.00000E+000	-2.20977E-001	0.00000E+000	7	...........	0
	282	28.3	-2.17969E-001	4.21310E-007	0.00000E+000	-2.17977E-001	0.00000E+000	7	...........	0
	285	28.6	-2.14986E-001	4.79993E-007	0.00000E+000	-2.14977E-001	0.00000E+000	7	...........	0
	288	28.9	-2.11973E-001	4.76992E-007	0.00000E+000	-2.11977E-001	0.00000E+000	7	...........	0
	291	29.2	-2.08990E-001	4.92996E-007	0.00000E+000	-2.08977E-001	0.00000E+000	7	...........	0
	294	29.5	-2.05987E-001	4.93996E-007	0.00000E+000	-2.05976E-001	0.00000E+000	7	...........	0
	297	29.8	-2.02984E-001	5.40676E-007	0.00000E+000	-2.02976E-001	0.00000E+000	7	...........	0
	300	30.1	-1.99961E-001	5.75686E-007	0.00000E+000	-1.99976E-001	0.00000E+000	7	...........	0
	303	30.4	-1.96978E-001	5.89689E-007	0.00000E+000	-1.96976E-001	0.00000E+000	7	...........	0
	306	30.7	-1.93995E-001	5.72018E-007	0.00000E+000	-1.93976E-001	0.00000E+000	7	...........	0
	309	31	-1.90972E-001	5.85355E-007	0.00000E+000	-1.90976E-001	0.00000E+000	7	...........	0
	312	31.3	-1.87990E-001	5.94357E-007	0.00000E+000	-1.87976E-001	0.00000E+000	7	...........	0
	315	31.6	-1.84987E-001	5.82354E-007	0.00000E+000	-1.84976E-001	0.00000E+000	7	...........	0
	318	31.9	-1.81994E-001	6.32034E-007	0.00000E+000	-1.81975E-001	0.00000E+000	7	...........	0
	321	32.2	-1.78991E-001	6.40370E-007	0.00000E+000	-1.78975E-001	0.00000E+000	7	...........	0
	324	32.5	-1.75978E-001	6.21031E-007	0.00000E+000	-1.75975E-001	0.00000E+000	7	...........	0
	327	32.8	-1.72975E-001	6.38703E-007	0.00000E+000	-1.72975E-001	0.00000E+000	7	...........	0
	330	33.1	-1.69992E-001	6.76047E-007	0.00000E+000	-1.69975E-001	0.00000E+000	7	...........	0
	333	33.4	-1.67019E-001	6.75046E-007	0.00000E+000	-1.67025E-001	0.00000E+000	7	...........	0
	336	33.7	-1.64036E-001	6.70045E-007	0.00000E+000	-1.64025E-001	0.00000E+000	7	...........	0
	339	34	-1.61023E-001	6.91051E-007	0.00000E+000	-1.61025E-001	0.00000E+000	7	...........	0
	342	34.3	-1.58030E-001	6.98053E-007	0.00000E+000	-1.58025E-001	0.00000E+000	7	...........	0
	345	34.6	-1.55047E-001	7.05054E-007	0.00000E+000	-1.55024E-001	0.00000E+000	7	...........	0
	348	34.9	-1.52064E-001	6.95052E-007	0.00000E+000	-1.52024E-001	0.00000E+000	7	...........	0
	351	35.2	-1.49081E-001	7.42398E-007	0.00000E+000	-1.49024E-001	0.00000E+000	7	...........	0
	354	35.5	-1.46068E-001	7.32062E-007	0.00000E+000	-1.46024E-001	0.00000E+000	7	...........	0
	357	35.8	-1.43055E-001	7.54068E-007	0.00000E+000	-1.43024E-001	0.00000E+000	7	...........	0
	360	36.1	-1.40042E-001	7.46399E-007	0.00000E+000	-1.40024E-001	0.00000E+000	7	...........	0
	363	36.4	-1.37059E-001	7.56735E-007	0.00000E+000	-1.37024E-001	0.00000E+000	7	...........	0
	366	36.7	-1.34066E-001	7.33729E-007	0.00000E+000	-1.34024E-001	0.00000E+000	7	...........	0
	369	37	-1.31053E-001	7.85743E-007	0.00000E+000	-1.31023E-001	0.00000E+000	7	...........	0
	372	37.3	-1.28050E-001	7.72740E-007	0.00000E+000	-1.28023E-001	0.00000E+000	7	...........	0
	375	37.6	-1.25067E-001	7.75074E-007	0.00000E+000	-1.25023E-001	0.00000E+000	7	...........	0
	378	37.9	-1.22064E-001	7.83743E-007	0.00000E+000	-1.22023E-001	0.00000E+000	7	...........	0
	381	38.2	-1.19051E-001	8.21753E-007	0.00000E+000	-1.19023E-001	0.00000E+000	7	...........	0
	384	38.5	-1.16048E-001	8.18419E-007	0.00000E+000	-1.16023E-001	0.00000E+000	7	...........	0
	387	38.8	-1.13075E-001	7.83409E-007	0.00000E+000	-1.13023E-001	0.00000E+000	7	...........	0
	390	39.1	-1.10072E-001	7.82742E-007	0.00000E+000	-1.10023E-001	0.00000E+000	7	...........	0
	393	39.4	-1.07059E-001	8.13084E-007	0.00000E+000	-1.07022E-001	0.00000E+000	7	...........	0
	396	39.7	-1.04056E-001	8.53429E-007	0.00000E+000	-1.04022E-001	0.00000E+000	7	...........	0
	399	40	-1.01053E-001	8.08750E-007	0.00000E+000	-1.01022E-001	0.00000E+000	7	...........	0
	402	40.3	-9.80600E-002	8.10083E-007	0.00000E+000	-9.80221E-002	0.00000E+000	7	...........	0
	405	40.6	-9.50670E-002	8.41759E-007	0.00000E+000	-9.50219E-002	0.00000E+000	7	...........	0
	408	40.9	-9.20640E-002	8.61764E-007	0.00000E+000	-9.20218E-002	0.00000E+000	7	...........	0
	411	41.2	-8.90410E-002	8.78435E-007	0.00000E+000	-8.90217E-002	0.00000E+000	7	...........	0
	414	41.5	-8.60480E-002	8.50761E-007	0.00000E+000	-8.60216E-002	0.00000E+000	7	...........	0
	417	41.8	-8.30751E-002	8.76101E-007	0.00000E+000	-8.30214E-002	0.00000E+000	7	...........	0
	420	42.1	-8.00721E-002	8.71100E-007	0.00000E+000	-8.00213E-002	0.00000E+000	7	...........	0
	423	42.4	-7.70591E-002	9.13445E-007	0.00000E+000	-7.70212E-002	0.00000E+000	7	...........	0
	426	42.7	-7.40761E-002	8.75435E-007	0.00000E+000	-7.40211E-002	0.00000E+000	7	...........	0
	429	43	-7.10431E-002	9.23448E-007	0.00000E+000	-7.10210E-002	0.00000E+000	7	...........	0
	432	43.3	-6.80601E-002	9.14112E-007	0.00000E+000	-6.80208E-002	0.00000E+000	7	...........	0
	435	43.6	-6.50571E-002	9.10111E-007	0.00000E+000	-6.50207E-002	0.00000E+000	7	...........	0
	438	43.9	-6.20742E-002	9.41119E-007	0.00000E+000	-6.20206E-002	0.00000E+000	7	...........	0
	441	44.2	-5.90812E-002	9.60791E-007	0.00000E+000	-5.90205E-002	0.00000E+000	7	...........	0
	444	44.5	-5.60682E-002	1.02614E-006	0.00000E+000	-5.60203E-002	0.00000E+000	7	...........	0
	447	44.8	-5.30652E-002	1.02381E-006	0.00000E+000	-5.30202E-002	0.00000E+000	7	...........	0
	450	45.1	-5.00522E-002	1.05949E-006	0.00000E+000	-5.00201E-002	0.00000E+000	7	...........	0
	453	45.4	-4.70692E-002	1.04281E-006	0.00000E+000	-4.70200E-002	0.00000E+000	7	...........	0
	456	45.7	-4.40462E-002	1.08716E-006	0.00000E+000	-4.40199E-002	0.00000E+000	7	...........	0
	459	46	-4.10633E-002	1.11683E-006	0.00000E+000	-4.10197E-002	0.00000E+000	7	...........	0
	462	46.3	-3.80403E-002	1.12884E-006	0.00000E+000	-3.80196E-002	0.00000E+000	7	...........	0
	465	46.6	-3.50473E-002	1.11717E-006	0.00000E+000	-3.50195E-002	0.00000E+000	7	...........	0
	468	46.9	-3.20743E-002	1.13517E-006	0.00000E+000	-3.20194E-002	0.00000E+000	7	...........	0
	471	47.2	-2.90713E-002	1.15251E-006	0.00000E+000	-2.90192E-002	0.00000E+000	7	...........	0
	474	47.5	-2.60583E-002	1.17618E-006	0.00000E+000	-2.60191E-002	0.00000E+000	7	...........	0
	477	47.8	-2.30541E-002	1.14951E-006	0.00000E+000	-2.30190E-002	0.00000E+000	7	...........	0
	480	48.1	-2.00541E-002	1.17718E-006	0.00000E+000	-2.00189E-002	0.00000E+000	7	...........	0
	483	48.4	-1.70721E-002	1.16718E-006	0.00000E+000	-1.70187E-002	0.00000E+000	7	...........	0
	486	48.7	-1.40531E-002	1.19986E-006	0.00000E+000	-1.40186E-002	0.00000E+000	7	...........	0
	489	49	-1.10531E-002	1.16018E-006	0.00000E+000	-1.10185E-002	0.00000E+000	7	...........	0
	492	49.3	-8.05416E-003	1.16185E-006	0.00000E+000	-8.01838E-003	0.00000E+000	7	...........	0
	495	49.6	-5.06018E-003	1.18319E-006	0.00000E+000	-5.01826E-003	0.00000E+000	7	...........	0
	498	49.9	-2.07021E-003	1.17152E-006	0.00000E+000	-2.01814E-003	0.00000E+000	7	...........	0
	501	50.2	9.35784E-004	1.18919E-006	0.00000E+000	9.81987E-004	0.00000E+000	7	...........	0
	504	50.5	3.94578E-003	1.18085E-006	0.00000E+000	3.98211E-003	0.00000E+000	7	...........	0
	507	50.8	6.94076E-003	1.19119E-006	0.00000E+000	6.98223E-003	0.00000E+000	7	...........	0
	510	51.1	9.94075E-003	1.18052E-006	0.00000E+000	9.98235E-003	0.00000E+000	7	...........	0
	513	51.4	1.29547E-002	1.17885E-006	0.00000E+000	1.29825E-002	0.00000E+000	7	...........	0
	516	51.7	1.59387E-002	1.19119E-006	0.00000E+000	1.59826E-002	0.00000E+000	7	...........	0
	519	52	1.89297E-002	1.24587E-006	0.00000E+000	1.89827E-002	0.00000E+000	7	...........	0
	522	52.3	2.19117E-002	1.26988E-006	0.00000E+000	2.19828E-002	0.00000E+000	7	...........	0
	525	52.6	2.49086E-002	1.28855E-006	0.00000E+000	2.49830E-002	0.00000E+000	7	...........	0
	528	52.9	2.79454E-002	1.33456E-006	0.00000E+000	2.79831E-002	0.00000E+000	7	...........	0
	531	53.2	3.09384E-002	1.33123E-006	0.00000E+000	3.09832E-002	0.00000E+000	7	...........	0
	534	53.5	3.39414E-002	1.34890E-006	0.00000E+000	3.39833E-002	0.00000E+000	7	...........	0
	537	53.8	3.69444E-002	1.35257E-006	0.00000E+000	3.69835E-002	0.00000E+000	7	...........	0
	540	54.1	3.99474E-002	1.39791E-006	0.00000E+000	3.99836E-002	0.00000E+000	7	...........	0
	543	54.4	4.29604E-002	1.39724E-006	0.00000E+000	4.29837E-002	0.00000E+000	7	...........	0
	546	54.7	4.59433E-002	1.38924E-006	0.00000E+000	4.59838E-002	0.00000E+000	7	...........	0
	549	55	4.89463E-002	1.44026E-006	0.00000E+000	4.89840E-002	0.00000E+000	7	...........	0
	552	55.3	5.19493E-002	1.42158E-006	0.00000E+000	5.19841E-002	0.00000E+000	7	...........	0
	555	55.6	5.49723E-002	1.43359E-006	0.00000E+000	5.49842E-002	0.00000E+000	7	...........	0
	558	55.9	5.79453E-002	1.44292E-006	0.00000E+000	5.79843E-002	0.00000E+000	7	...........	0
	561	56.2	6.09383E-002	1.39991E-006	0.00000E+000	6.09844E-002	0.00000E+000	7	...........	0
	564	56.5	6.39513E-002	1.39224E-006	0.00000E+000	6.39846E-002	0.00000E+000	7	...........	0
	567	56.8	6.69342E-002	1.37557E-006	0.00000E+000	6.69847E-002	0.00000E+000	7	...........	0
	570	57.1	6.99673E-002	1.42992E-006	0.00000E+000	6.99848E-002	0.00000E+000	7	...........	0
	573	57.4	7.29502E-002	1.42892E-006	0.00000E+000	7.29849E-002	0.00000E+000	7	...........	0
	576	57.7	7.59532E-002	1.41392E-006	0.00000E+000	7.59851E-002	0.00000E+000	7	...........	0
	579	58	7.89462E-002	1.40491E-006	0.00000E+000	7.89852E-002	0.00000E+000	7	...........	0
	582	58.3	8.19292E-002	1.44492E-006	0.00000E+000	8.19853E-002	0.00000E+000	7	...........	0
	585	58.6	8.49522E-002	1.43959E-006	0.00000E+000	8.49854E-002	0.00000E+000	7	...........	0
	588	58.9	8.79452E-002	1.47727E-006	0.00000E+000	8.79855E-002	0.00000E+000	7	...........	0
	591	59.2	9.09582E-002	1.47293E-006	0.00000E+000	9.09857E-002	0.00000E+000	7	...........	0
	594	59.5	9.39511E-002	1.50227E-006	0.00000E+000	9.39858E-002	0.00000E+000	7	...........	0
	597	59.8	9.69541E-002	1.55696E-006	0.00000E+000	9.69859E-002	0.00000E+000	7	...........	0
	600	60.1	9.99171E-002	1.55462E-006	0.00000E+000	9.99860E-002	0.00000E+000	7	...........	0
	603	60.4	1.02950E-001	1.63164E-006	0.00000E+000	1.02986E-001	0.00000E+000	7	...........	0
	606	60.7	1.05953E-001	1.56262E-006	0.00000E+000	1.05986E-001	0.00000E+000	7	...........	0
	609	61	1.08956E-001	1.64565E-006	0.00000E+000	1.08986E-001	0.00000E+000	7	...........	0
	612	61.3	1.11949E-001	1.66265E-006	0.00000E+000	1.11987E-001	0.00000E+000	7	...........	0
	615	61.6	1.14962E-001	1.71366E-006	0.00000E+000	1.14987E-001	0.00000E+000	7	...........	0
	618	61.9	1.17955E-001	1.68766E-006	0.00000E+000	1.17987E-001	0.00000E+000	7	...........	0
	621	62.2	1.20948E-001	1.71967E-006	0.00000E+000	1.20987E-001	0.00000E+000	7	...........	0
	624	62.5	1.23941E-001	1.71066E-006	0.00000E+000	1.23987E-001	0.00000E+000	7	...........	0
	627	62.8	1.26924E-001	1.68266E-006	0.00000E+000	1.26987E-001	0.00000E+000	7	...........	0
	630	63.1	1.29957E-001	1.70833E-006	0.00000E+000	1.29987E-001	0.00000E+000	7	...........	0
	633	63.4	1.32960E-001	1.70366E-006	0.00000E+000	1.32987E-001	0.00000E+000	7	...........	0
	636	63.7	1.35953E-001	1.67765E-006	0.00000E+000	1.35988E-001	0.00000E+000	7	...........	0
	639	64	1.38946E-001	1.70566E-006	0.00000E+000	1.38988E-001	0.00000E+000	7	...........	0
	642	64.3	1.41949E-001	1.72133E-006	0.00000E+000	1.41988E-001	0.00000E+000	7	...........	0
	645	64.6	1.44952E-001	1.76234E-006	0.00000E+000	1.44988E-001	0.00000E+000	7	...........	0
	648	64.9	1.47945E-001	1.77468E-006	0.00000E+000	1.47988E-001	0.00000E+000	7	...........	0
	651	65.2	1.50948E-001	1.75368E-006	0.00000E+000	1.50988E-001	0.00000E+000	7	...........	0
	654	65.5	1.53961E-001	1.79235E-006	0.00000E+000	1.53988E-001	0.00000E+000	7	...........	0
	657	65.8	1.56964E-001	1.78668E-006	0.00000E+000	1.56988E-001	0.00000E+000	7	...........	0
	660	66.1	1.59947E-001	1.84037E-006	0.00000E+000	1.59988E-001	0.00000E+000	7	...........	0
	663	66.4	1.62950E-001	1.85537E-006	0.00000E+000	1.62989E-001	0.00000E+000	7	...........	0
	666	66.7	1.65943E-001	1.86304E-006	0.00000E+000	1.65989E-001	0.00000E+000	7	...........	0
	669	67	1.68956E-001	1.90472E-006	0.00000E+000	1.68989E-001	0.00000E+000	7	...........	0
	672	67.3	1.71949E-001	1.87371E-006	0.00000E+000	1.71989E-001	0.00000E+000	7	...........	0
	675	67.6	1.74942E-001	1.93873E-006	0.00000E+000	1.74989E-001	0.00000E+000	7	...........	0
	678	67.9	1.77935E-001	1.90638E-006	0.00000E+000	1.77989E-001	0.00000E+000	7	...........	0
	681	68.2	1.80948E-001	1.86937E-006	0.00000E+000	1.80989E-001	0.00000E+000	7	...........	0
	684	68.5	1.83981E-001	1.88738E-006	0.00000E+000	1.83989E-001	0.00000E+000	7	...........	0
	687	68.8	1.86954E-001	1.86237E-006	0.00000E+000	1.86990E-001	0.00000E+000	7	...........	0
	690	69.1	1.89947E-001	1.88171E-006	0.00000E+000	1.89990E-001	0.00000E+000	7	...........	0
	693	69.4	1.92950E-001	1.84670E-006	0.00000E+000	1.92990E-001	0.00000E+000	7	...........	0
	696	69.7	1.95943E-001	1.87404E-006	0.00000E+000	1.95990E-001	0.00000E+000	7	...........	0
	699	70	1.98956E-001	1.88438E-006	0.00000E+000	1.98990E-001	0.00000E+000	7	...........	0
	702	70.3	2.01929E-001	1.87204E-006	0.00000E+000	2.01990E-001	0.00000E+000	7	...........	0
	705	70.6	2.04942E-001	1.90338E-006	0.00000E+000	2.04990E-001	0.00000E+000	7	...........	0
	708	70.9	2.07945E-001	1.90572E-006	0.00000E+000	2.07990E-001	0.00000E+000	7	...........	0
	711	71.2	2.10968E-001	1.93039E-006	0.00000E+000	2.10991E-001	0.00000E+000	7	...........	0
	714	71.5	2.13951E-001	1.89371E-006	0.00000E+000	2.13991E-001	0.00000E+000	7	...........	0
	717	71.8	2.16944E-001	1.93072E-006	0.00000E+000	2.16991E-001	0.00000E+000	7	...........	0
	720	72.1	2.19967E-001	1.99274E-006	0.00000E+000	2.19991E-001	0.00000E+000	7	...........	0
	723	72.4	2.22940E-001	1.97040E-006	0.00000E+000	2.22991E-001	0.00000E+000	7	...........	0
	726	72.7	2.25933E-001	1.98607E-006	0.00000E+000	2.25991E-001	0.00000E+000	7	...........	0
	729	73	2.28945E-001	2.04109E-006	0.00000E+000	2.28991E-001	0.00000E+000	7	...........	0
	732	73.3	2.31948E-001	2.01141E-006	0.00000E+000	2.31991E-001	0.00000E+000	7	...........	0
	735	73.6	2.34951E-001	2.05543E-006	0.00000E+000	2.34992E-001	0.00000E+000	7	...........	0
	738	73.9	2.37954E-001	2.04742E-006	0.00000E+000	2.37992E-001	0.00000E+000	7	...........	0
	741	74.2	2.40947E-001	2.05809E-006	0.00000E+000	2.40992E-001	0.00000E+000	7	...........	0
	744	74.5	2.43940E-001	2.03275E-006	0.00000E+000	2.43992E-001	0.00000E+000	7	...........	0
	747	74.8	2.46933E-001	2.01441E-006	0.00000E+000	2.46992E-001	0.00000E+000	7	...........	0
	750	75.1	2.49926E-001	2.00241E-006	0.00000E+000	2.49992E-001	0.00000E+000	7	...........	0
	753	75.4	2.52919E-001	2.07676E-006	0.00000E+000	2.52992E-001	0.00000E+000	7	...........	0
	756	75.7	2.55922E-001	2.04709E-006	0.00000E+000	2.55992E-001	0.00000E+000	7	...........	0
	759	76	2.58925E-001	2.11411E-006	0.00000E+000	2.58993E-001	0.00000E+000	7	...........	0
	762	76.3	2.61918E-001	2.06443E-006	0.00000E+000	2.61993E-001	0.00000E+000	7	...........	0
	765	76.6	2.64911E-001	2.03909E-006	0.00000E+000	2.64993E-001	0.00000E+000	7	...........	0
	768	76.9	2.68155E-001	2.02742E-006	0.00000E+000	2.67993E-001	0.00000E+000	7	...........	0
	771	77.2	2.71158E-001	2.01141E-006	0.00000E+000	2.70993E-001	0.00000E+000	7	...........	0
	774	77.5	2.74061E-001	2.02808E-006	0.00000E+000	2.73993E-001	0.00000E+000	7	...........	0
	777	77.8	2.77164E-001	2.00541E-006	0.00000E+000	2.76993E-001	0.00000E+000	7	...........	0
	780	78.1	2.80067E-001	2.01641E-006	0.00000E+000	2.79993E-001	0.00000E+000	7	...........	0
	783	78.4	2.83070E-001	2.04276E-006	0.00000E+000	2.82993E-001	0.00000E+000	7	...........	0
	786	78.7	2.86173E-001	2.05409E-006	0.00000E+000	2.85994E-001	0.00000E+000	7	...........	0
	789	79	2.89176E-001	2.09144E-006	0.00000E+000	2.88994E-001	0.00000E+000	7	...........	0
	792	79.3	2.92079E-001	2.14312E-006	0.00000E+000	2.91994E-001	0.00000E+000	7	...........	0
	795	79.6	2.95182E-001	2.12711E-006	0.00000E+000	2.94994E-001	0.00000E+000	7	...........	0
	798	79.9	2.98185E-001	2.13378E-006	0.00000E+000	2.97994E-001	0.00000E+000	7	...........	0
	801	80.2	3.01188E-001	2.13111E-006	0.00000E+000	3.00994E-001	0.00000E+000	7	...........	0
	804	80.5	3.04091E-001	2.17146E-006	0.00000E+000	3.03994E-001	0.00000E+000	7	...........	0
	807	80.8	3.07194E-001	2.12511E-006	0.00000E+000	3.06994E-001	0.00000E+000	7	...........	0
	810	81.1	3.10197E-001	2.13645E-006	0.00000E+000	3.09995E-001	0.00000E+000	7	...........	0
	813	81.4	3.13100E-001	2.11111E-006	0.00000E+000	3.12995E-001	0.00000E+000	7	...........	0
	816	81.7	3.16203E-001	2.16045E-006	0.00000E+000	3.15995E-001	0.00000E+000	7	...........	0
	819	82	3.19106E-001	2.12278E-006	0.00000E+000	3.18995E-001	0.00000E+000	7	...........	0
	822	82.3	3.22209E-001	2.07710E-006	0.00000E+000	3.21995E-001	0.00000E+000	7	...........	0
	825	82.6	3.25212E-001	2.15779E-006	0.00000E+000	3.24995E-001	0.00000E+000	7	...........	0
	828	82.9	3.28215E-001	2.11344E-006	0.00000E+000	3.27995E-001	0.00000E+000	7	...........	0
	831	83.2	3.31118E-001	2.14978E-006	0.00000E+000	3.30995E-001	0.00000E+000	7	...........	0
	834	83.5	3.34221E-001	2.21180E-006	0.00000E+000	3.33996E-001	0.00000E+000	7	...........	0
	837	83.8	3.37124E-001	2.24114E-006	0.00000E+000	3.36996E-001	0.00000E+000	7	...........	0
	840	84.1	3.40127E-001	2.26515E-006	0.00000E+000	3.39996E-001	0.00000E+000	7	...........	0
	843	84.4	3.43130E-001	2.25815E-006	0.00000E+000	3.42996E-001	0.00000E+000	7	...........	0
	846	84.7	3.46233E-001	2.30683E-006	0.00000E+000	3.45996E-001	0.00000E+000	7	...........	0
	849	85	3.49236E-001	2.35017E-006	0.00000E+000	3.48996E-001	0.00000E+000	7	...........	0
	852	85.3	3.52139E-001	2.28582E-006	0.00000E+000	3.51996E-001	0.00000E+000	7	...........	0
	855	85.6	3.55242E-001	2.30049E-006	0.00000E+000	3.54996E-001	0.00000E+000	7	...........	0
	858	85.9	3.58145E-001	2.29182E-006	0.00000E+000	3.57997E-001	0.00000E+000	7	...........	0
	861	86.2	3.61148E-001	2.32850E-006	0.00000E+000	3.60997E-001	0.00000E+000	7	...........	0
	864	86.5	3.64151E-001	2.32717E-006	0.00000E+000	3.63997E-001	0.00000E+000	7	...........	0
	867	86.8	3.67154E-001	2.31083E-006	0.00000E+000	3.66997E-001	0.00000E+000	7	...........	0
	870	87.1	3.70157E-001	2.29783E-006	0.00000E+000	3.69997E-001	0.00000E+000	7	...........	0
	873	87.4	3.73160E-001	2.33317E-006	0.00000E+000	3.72997E-001	0.00000E+000	7	...........	0
	876	87.7	3.76162E-001	2.34851E-006	0.00000E+000	3.75997E-001	0.00000E+000	7	...........	0
	879	88	3.79166E-001	2.41786E-006	0.00000E+000	3.78997E-001	0.00000E+000	7	...........	0
	882	88.3	3.82169E-001	2.38352E-006	0.00000E+000	3.81998E-001	0.00000E+000	7	...........	0
	885	88.6	3.85171E-001	2.41152E-006	0.00000E+000	3.84998E-001	0.00000E+000	7	...........	0
	888	88.9	3.88074E-001	2.47921E-006	0.00000E+000	3.87998E-001	0.00000E+000	7	...........	0
	891	89.2	3.91278E-001	2.44153E-006	0.00000E+000	3.90998E-001	0.00000E+000	7	...........	0
	894	89.5	3.94180E-001	2.51955E-006	0.00000E+000	3.93998E-001	0.00000E+000	7	...........	0
	897	89.8	3.97183E-001	2.56690E-006	0.00000E+000	3.96998E-001	0.00000E+000	7	...........	0
	900	90.1	4.00287E-001	2.62525E-006	0.00000E+000	3.99998E-001	0.00000E+000	7	...........	0
	903	90.4	4.03189E-001	2.62758E-006	0.00000E+000	4.02998E-001	0.00000E+000	7	...........	0
	906	90.7	4.06092E-001	2.59657E-006	0.00000E+000	4.05999E-001	0.00000E+000	7	...........	0
	909	91	4.09195E-001	2.61258E-006	0.00000E+000	4.08999E-001	0.00000E+000	7	...........	0
	912	91.3	4.12198E-001	2.65392E-006	0.00000E+000	4.11999E-001	0.00000E+000	7	...........	0
	915	91.6	4.15201E-001	2.63992E-006	0.00000E+000	4.14999E-001	0.00000E+000	7	...........	0
	918	91.9	4.18204E-001	2.68793E-006	0.00000E+000	4.17999E-001	0.00000E+000	7	...........	0
	921	92.2	4.21307E-001	2.71427E-006	0.00000E+000	4.20999E-001	0.00000E+000	7	...........	0
	924	92.5	4.24310E-001	2.72594E-006	0.00000E+000	4.23999E-001	0.00000E+000	7	...........	0
	927	92.8	4.27213E-001	2.78296E-006	0.00000E+000	4.26999E-001	0.00000E+000	7	...........	0
	930	93.1	4.30216E-001	2.78496E-006	0.00000E+000	4.30000E-001	0.00000E+000	7	...........	0
	933	93.4	4.33219E-001	2.83697E-006	0.00000E+000	4.33000E-001	0.00000E+000	7	...........	0
	936	93.7	4.36222E-001	2.87065E-006	0.00000E+000	4.36000E-001	0.00000E+000	7	...........	0
	939	94	4.39225E-001	2.92033E-006	0.00000E+000	4.39000E-001	0.00000E+000	7	...........	0
	942	94.3	4.42228E-001	2.97735E-006	0.00000E+000	4.42000E-001	0.00000E+000	7	...........	0
	945	94.6	4.45231E-001	2.98902E-006	0.00000E+000	4.45000E-001	0.00000E+000	7	...........	0
	948	94.9	4.48234E-001	2.99035E-006	0.00000E+000	4.48000E-001	0.00000E+000	7	...........	0
	951	95.2	4.51137E-001	2.96801E-006	0.00000E+000	4.51000E-001	0.00000E+000	7	...........	0
	954	95.5	4.54340E-001	2.96067E-006	0.00000E+000	4.54001E-001	0.00000E+000	7	...........	0
	957	95.8	4.57143E-001	3.00069E-006	0.00000E+000	4.57001E-001	0.00000E+000	7	...........	0
	960	96.1	4.60246E-001	3.04303E-006	0.00000E+000	4.60001E-001	0.00000E+000	7	...........	0
	963	96.4	4.63149E-001	3.04670E-006	0.00000E+000	4.63001E-001	0.00000E+000	7	...........	0
	966	96.7	4.66152E-001	3.11805E-006	0.00000E+000	4.66001E-001	0.00000E+000	7	...........	0
	969	97	4.69255E-001	3.11805E-006	0.00000E+000	4.69001E-001	0.00000E+000	7	...........	0
	972	97.3	4.72158E-001	3.16673E-006	0.00000E+000	4.72001E-001	0.00000E+000	7	...........	0
	975	97.6	4.75261E-001	3.22041E-006	0.00000E+000	4.75001E-001	0.00000E+000	7	...........	0
	978	97.9	4.78164E-001	3.22008E-006	0.00000E+000	4.78001E-001	0.00000E+000	7	...........	0
	981	98.2	4.81167E-001	3.26276E-006	0.00000E+000	4.81002E-001	0.00000E+000	7	...........	0
	984	98.5	4.84270E-001	3.32244E-006	0.00000E+000	4.84002E-001	0.00000E+000	7	...........	0
	987	98.8	4.87173E-001	3.34878E-006	0.00000E+000	4.87002E-001	0.00000E+000	7	...........	0
	990	99.1	4.90176E-001	3.43247E-006	0.00000E+000	4.90002E-001	0.00000E+000	7	...........	0
	993	99.4	4.93279E-001	3.47048E-006	0.00000E+000	4.93002E-001	0.00000E+000	7	...........	0
	996	99.7	4.96182E-001	3.51783E-006	0.00000E+000	4.96002E-001	0.00000E+000	7	...........	0
	999	100	4.99185E-001	3.60252E-006	0.00000E+000	4.99002E-001	0.00000E+000	7	...........	0
	1002	100.3	5.02188E-001	3.57584E-006	0.00000E+000	5.02002E-001	0.00000E+000	7	...........	0
	1005	100.6	5.05191E-001	3.58084E-006	0.00000E+000	5.05003E-001	0.00000E+000	7	...........	0
	1008	100.9	5.08294E-001	3.66120E-006	0.00000E+000	5.08003E-001	0.00000E+000	7	...........	0
	1011	101.2	5.11197E-001	3.65186E-006	0.00000E+000	5.11003E-001	0.00000E+000	7	...........	0
	1014	101.5	5.14200E-001	3.72922E-006	0.00000E+000	5.14003E-001	0.00000E+000	7	...........	0
	1017	101.8	5.17203E-001	3.75323E-006	0.00000E+000	5.17003E-001	0.00000E+000	7	...........	0
	1020	102.1	5.20206E-001	3.78490E-006	0.00000E+000	5.20003E-001	0.00000E+000	7	...........	0
	1023	102.4	5.23309E-001	3.80424E-006	0.00000E+000	5.23003E-001	0.00000E+000	7	...........	0
	1026	102.7	5.26312E-001	3.82491E-006	0.00000E+000	5.26003E-001	0.00000E+000	7	...........	0
	1029	103	5.29215E-001	3.85992E-006	0.00000E+000	5.29004E-001	0.00000E+000	7	...........	0
	1032	103.3	5.32218E-001	3.87259E-006	0.00000E+000	5.32004E-001	0.00000E+000	7	...........	0
	1035	103.6	5.35221E-001	3.88393E-006	0.00000E+000	5.35004E-001	0.00000E+000	7	...........	0
	1038	103.9	5.38224E-001	3.98429E-006	0.00000E+000	5.38004E-001	0.00000E+000	7	...........	0
	1041	104.2	5.41227E-001	4.02230E-006	0.00000E+000	5.41004E-001	0.00000E+000	7	...........	0
	1044	104.5	5.44130E-001	4.10199E-006	0.00000E+000	5.44004E-001	0.00000E+000	7	...........	0
	1047	104.8	5.47133E-001	4.18268E-006	0.00000E+000	5.47004E-001	0.00000E+000	7	...........	0
	1050	105.1	5.50236E-001	4.17768E-006	0.00000E+000	5.50004E-001	0.00000E+000	7	...........	0
	1053	105.4	5.53239E-001	4.27170E-006	0.00000E+000	5.53005E-001	0.00000E+000	7	...........	0
	1056	105.7	5.56242E-001	4.30904E-006	0.00000E+000	5.56005E-001	0.00000E+000	7	...........	0
	1059	106	5.59145E-001	4.34339E-006	0.00000E+000	5.59005E-001	0.00000E+000	7	...........	0
	1062	106.3	5.62248E-001	4.38773E-006	0.00000E+000	5.62005E-001	0.00000E+000	7	...........	0
	1065	106.6	5.65251E-001	4.41274E-006	0.00000E+000	5.65005E-001	0.00000E+000	7	...........	0
	1068	106.9	5.68254E-001	4.40740E-006	0.00000E+000	5.68005E-001	0.00000E+000	7	...........	0
	1071	107.2	5.71257E-001	4.46209E-006	0.00000E+000	5.71005E-001	0.00000E+000	7	...........	0
	1074	107.5	5.74260E-001	4.45742E-006	0.00000E+000	5.74005E-001	0.00000E+000	7	...........	0
	1077	107.8	5.77263E-001	4.49876E-006	0.00000E+000	5.77006E-001	0.00000E+000	7	...........	0
	1080	108.1	5.80266E-001	4.54511E-006	0.00000E+000	5.80006E-001	0.00000E+000	7	...........	0
	1083	108.4	5.83269E-001	4.55044E-006	0.00000E+000	5.83006E-001	0.00000E+000	7	...........	0
	1086	108.7	5.86071E-001	4.59946E-006	0.00000E+000	5.86006E-001	0.00000E+000	7	...........	0
	1089	109	5.89275E-001	4.64247E-006	0.00000E+000	5.89006E-001	0.00000E+000	7	...........	0
	1092	109.3	5.92278E-001	4.66981E-006	0.00000E+000	5.92006E-001	0.00000E+000	7	...........	0
	1095	109.6	5.95281E-001	4.68415E-006	0.00000E+000	5.95006E-001	0.00000E+000	7	...........	0
	1098	109.9	5.98284E-001	4.74383E-006	0.00000E+000	5.98006E-001	0.00000E+000	7	...........	0
	1100	110.1	6.00286E-001	4.73216E-006	0.00000E+000	6.00006E-001	0.00000E+000	7	...........	0