File: LSV ZFO/ZFO_h200_light_reator.DTA
EXPLAIN
TAG	LSV
TITLE	LABEL	Linear Sweep Voltammetry	Test &Identifier
DATE	LABEL	7/5/2024	Date
TIME	LABEL	18:07:56	Time
NOTES	NOTES	1	&Notes...

PSTAT	PSTAT	L3FNano	Potentiostat
VINIT	POTEN	-5.00000E-001	F	&Initial E (V)
VFINAL	POTEN	6.00000E-001	F	&Final E (V)
SCANRATE	QUANT	9.99998E+000	&Scan Rate (mV/s)
STEPSIZE	QUANT	1.00000E+000	St&ep Size (mV)
IMODE	SELECTOR	0	I/E Range &Mode
IRANGE	QUANT	1.00000E+001	&Max Current (mA)
AREA	QUANT	1.00000E+000	Electrode &Area (cm^2)
ELECTRODETYPE	SELECTOR	0	Electrode Type
STRIPPING	TOGGLE	F	Used for Stripping
POLARITY	TOGGLE	F	Signal Polarity
CONDIT	TWOPARAM	F	1.50000E+001	0.00000E+000	Conditionin&g	Time(s)	E(V)
DELAY	TWOPARAM	F	3.00000E+001	0.00000E+000	Init. De&lay	Time(s)	Stab.(mV/s)
EQDELAY	QUANT	5.00000E+000	Equil. &Time (s)
IRCOMP	SELECTOR	0	IRCom&p
PFCOR	QUANT	5.00000E+001	PF Corr. (ohm)
SAMPLINGMODE	SELECTOR	0	Sampling &Mode
EOC	QUANT	0	Open Circuit (V)
PSTATMODEL	IQUANT	48	Pstat Model
PSTATSECTION	LABEL	IFC1000-07082	Pstat Section
PSTATSERIALNO	LABEL	07082	Pstat Serial Number
CTRLMODE	IQUANT	1	Control Mode
IESTAB	IQUANT	2	I/E Stability
CASPEED	IQUANT	2	Control Amp Speed
CONVENTION	IQUANT	1	Current Convention
ICHRANGE	IQUANT	2	Ich Range
ICHRANGEMODE	TOGGLE	F	Ich Auto Range
ICHOFFSETENABLE	TOGGLE	F	Ich Offset Enable
ICHOFFSET	QUANT	0	Ich Offset (V)
ICHFILTER	IQUANT	3	Ich Filter
VCHRANGE	IQUANT	2	Vch Range
VCHRANGEMODE	TOGGLE	T	Vch Auto Range
VCHOFFSETENABLE	TOGGLE	F	Vch Offset Enable
VCHOFFSET	QUANT	0	Vch Offset (V)
VCHFILTER	IQUANT	3	Vch Filter
IERANGELOWERLIMIT	IQUANT	4	I/E Range Lower Limit
IERANGEMODE	TOGGLE	T	I/E AutoRange
IERANGE	IQUANT	11	I/E Range
ACHSELECT	IQUANT	4	Ach Select
CABLEID	IQUANT	14	Cable ID
DCCALDATE	LABEL	7/3/2024	DC Calibration Date
ACCALDATE	LABEL	7/3/2024	AC Calibration Date
FRAMEWORKVERSION	QUANT	6.24	Framework Version
INSTRUMENTVERSION	LABEL	3.28	Instrument Version
CURVE	TABLE	1101
	Pt	T	Vf	Im	Vu	Sig	Ach	IERange	Over	Cycle
	#	s	V vs. Ref.	A	V	V	V	#	bits	#
	0	0.1	-5.00110E-001	-4.71743E-006	0.00000E+000	-4.99988E-001	0.00000E+000	11	...........	0
	3	0.4	-4.97007E-001	-7.55192E-006	0.00000E+000	-4.96988E-001	0.00000E+000	8	...........	0
	6	0.7	-4.94004E-001	-6.96739E-006	0.00000E+000	-4.93988E-001	0.00000E+000	7	...........	0
	9	1	-4.91001E-001	-6.56561E-006	0.00000E+000	-4.90988E-001	0.00000E+000	7	...........	0
	12	1.3	-4.87998E-001	-5.63869E-006	0.00000E+000	-4.87988E-001	0.00000E+000	7	...........	0
	15	1.6	-4.84995E-001	-5.51299E-006	0.00000E+000	-4.84988E-001	0.00000E+000	7	...........	0
	18	1.9	-4.81992E-001	-5.06853E-006	0.00000E+000	-4.81988E-001	0.00000E+000	7	...........	0
	21	2.2	-4.79089E-001	-4.56339E-006	0.00000E+000	-4.78988E-001	0.00000E+000	7	...........	0
	24	2.5	-4.75986E-001	-4.26264E-006	0.00000E+000	-4.75987E-001	0.00000E+000	7	...........	0
	27	2.8	-4.73083E-001	-3.96956E-006	0.00000E+000	-4.72987E-001	0.00000E+000	7	...........	0
	30	3.1	-4.69980E-001	-3.65148E-006	0.00000E+000	-4.69987E-001	0.00000E+000	7	...........	0
	33	3.4	-4.66977E-001	-3.36673E-006	0.00000E+000	-4.66987E-001	0.00000E+000	7	...........	0
	36	3.7	-4.63974E-001	-3.35173E-006	0.00000E+000	-4.63987E-001	0.00000E+000	7	...........	0
	39	4	-4.61071E-001	-2.89660E-006	0.00000E+000	-4.60987E-001	0.00000E+000	7	...........	0
	42	4.3	-4.58068E-001	-2.79224E-006	0.00000E+000	-4.57987E-001	0.00000E+000	7	...........	0
	45	4.6	-4.54965E-001	-2.50816E-006	0.00000E+000	-4.54987E-001	0.00000E+000	7	...........	0
	48	4.9	-4.51962E-001	-2.33845E-006	0.00000E+000	-4.51987E-001	0.00000E+000	7	...........	0
	51	5.2	-4.49059E-001	-2.31478E-006	0.00000E+000	-4.48986E-001	0.00000E+000	7	...........	0
	54	5.5	-4.45956E-001	-2.06171E-006	0.00000E+000	-4.45986E-001	0.00000E+000	7	...........	0
	57	5.8	-4.43053E-001	-1.90133E-006	0.00000E+000	-4.42986E-001	0.00000E+000	7	...........	0
	60	6.1	-4.40050E-001	-1.74895E-006	0.00000E+000	-4.39986E-001	0.00000E+000	7	...........	0
	63	6.4	-4.36947E-001	-1.62792E-006	0.00000E+000	-4.36986E-001	0.00000E+000	7	...........	0
	66	6.7	-4.34044E-001	-1.65626E-006	0.00000E+000	-4.33986E-001	0.00000E+000	7	...........	0
	69	7	-4.30941E-001	-1.64292E-006	0.00000E+000	-4.30986E-001	0.00000E+000	7	...........	0
	72	7.3	-4.28038E-001	-1.50755E-006	0.00000E+000	-4.27986E-001	0.00000E+000	7	...........	0
	75	7.6	-4.25035E-001	-1.37618E-006	0.00000E+000	-4.24985E-001	0.00000E+000	7	...........	0
	78	7.9	-4.22032E-001	-1.29850E-006	0.00000E+000	-4.21985E-001	0.00000E+000	7	...........	0
	81	8.2	-4.19029E-001	-1.32817E-006	0.00000E+000	-4.18985E-001	0.00000E+000	7	...........	0
	84	8.5	-4.15926E-001	-1.05676E-006	0.00000E+000	-4.15985E-001	0.00000E+000	7	...........	0
	87	8.8	-4.13023E-001	-6.14308E-007	0.00000E+000	-4.12985E-001	0.00000E+000	7	...........	0
	90	9.1	-4.10020E-001	-4.76270E-007	0.00000E+000	-4.09985E-001	0.00000E+000	7	...........	0
	93	9.4	-4.07117E-001	-1.06502E-007	0.00000E+000	-4.06985E-001	0.00000E+000	7	...........	0
	96	9.7	-4.03914E-001	4.68736E-008	0.00000E+000	-4.03985E-001	0.00000E+000	7	...........	0
	99	10	-4.01011E-001	-2.88552E-007	0.00000E+000	-4.00984E-001	0.00000E+000	7	...........	0
	102	10.3	-3.98008E-001	-3.50235E-007	0.00000E+000	-3.97984E-001	0.00000E+000	7	...........	0
	105	10.6	-3.95105E-001	-5.28284E-007	0.00000E+000	-3.94984E-001	0.00000E+000	7	...........	0
	108	10.9	-3.92002E-001	-4.75937E-007	0.00000E+000	-3.91984E-001	0.00000E+000	7	...........	0
	111	11.2	-3.88899E-001	-4.37926E-007	0.00000E+000	-3.88984E-001	0.00000E+000	7	...........	0
	114	11.5	-3.85896E-001	-2.56210E-007	0.00000E+000	-3.85984E-001	0.00000E+000	7	...........	0
	117	11.8	-3.83093E-001	-3.23895E-007	0.00000E+000	-3.82984E-001	0.00000E+000	7	...........	0
	120	12.1	-3.79990E-001	-4.54851E-008	0.00000E+000	-3.79984E-001	0.00000E+000	7	...........	0
	123	12.4	-3.76987E-001	-1.96527E-007	0.00000E+000	-3.76983E-001	0.00000E+000	7	...........	0
	126	12.7	-3.74084E-001	-1.83190E-007	0.00000E+000	-3.73983E-001	0.00000E+000	7	...........	0
	129	13	-3.70981E-001	-3.14813E-008	0.00000E+000	-3.70983E-001	0.00000E+000	7	...........	0
	132	13.3	-3.67978E-001	2.32004E-008	0.00000E+000	-3.67983E-001	0.00000E+000	7	...........	0
	135	13.6	-3.64975E-001	5.09334E-007	0.00000E+000	-3.64983E-001	0.00000E+000	7	...........	0
	138	13.9	-3.62072E-001	7.74407E-007	0.00000E+000	-3.61983E-001	0.00000E+000	7	...........	0
	141	14.2	-3.58969E-001	8.10417E-007	0.00000E+000	-3.58983E-001	0.00000E+000	7	...........	0
	144	14.5	-3.56066E-001	8.45426E-007	0.00000E+000	-3.55983E-001	0.00000E+000	7	...........	0
	147	14.8	-3.53063E-001	1.00214E-006	0.00000E+000	-3.52982E-001	0.00000E+000	7	...........	0
	150	15.1	-3.50060E-001	1.17118E-006	0.00000E+000	-3.49982E-001	0.00000E+000	7	...........	0
	153	15.4	-3.47057E-001	1.34723E-006	0.00000E+000	-3.46982E-001	0.00000E+000	7	...........	0
	156	15.7	-3.43954E-001	1.25220E-006	0.00000E+000	-3.43982E-001	0.00000E+000	7	...........	0
	159	16	-3.40951E-001	1.18352E-006	0.00000E+000	-3.40982E-001	0.00000E+000	7	...........	0
	162	16.3	-3.38048E-001	8.98441E-007	0.00000E+000	-3.37982E-001	0.00000E+000	7	...........	0
	165	16.6	-3.35045E-001	8.47093E-007	0.00000E+000	-3.34982E-001	0.00000E+000	7	...........	0
	168	16.9	-3.31942E-001	8.28088E-007	0.00000E+000	-3.31982E-001	0.00000E+000	7	...........	0
	171	17.2	-3.28839E-001	1.16451E-006	0.00000E+000	-3.28982E-001	0.00000E+000	7	...........	0
	174	17.5	-3.26036E-001	1.41892E-006	0.00000E+000	-3.25981E-001	0.00000E+000	7	...........	0
	177	17.8	-3.23033E-001	1.45759E-006	0.00000E+000	-3.22981E-001	0.00000E+000	7	...........	0
	180	18.1	-3.19930E-001	1.63931E-006	0.00000E+000	-3.19981E-001	0.00000E+000	7	...........	0
	183	18.4	-3.17027E-001	1.73100E-006	0.00000E+000	-3.16981E-001	0.00000E+000	7	...........	0
	186	18.7	-3.14024E-001	1.99274E-006	0.00000E+000	-3.13981E-001	0.00000E+000	7	...........	0
	189	19	-3.11021E-001	2.01541E-006	0.00000E+000	-3.10981E-001	0.00000E+000	7	...........	0
	192	19.3	-3.08018E-001	1.99741E-006	0.00000E+000	-3.07981E-001	0.00000E+000	7	...........	0
	195	19.6	-3.05015E-001	1.93673E-006	0.00000E+000	-3.04981E-001	0.00000E+000	7	...........	0
	198	19.9	-3.01912E-001	2.00575E-006	0.00000E+000	-3.01980E-001	0.00000E+000	7	...........	0
	201	20.2	-2.99010E-001	1.99808E-006	0.00000E+000	-2.98980E-001	0.00000E+000	7	...........	0
	204	20.5	-2.96007E-001	2.28315E-006	0.00000E+000	-2.95980E-001	0.00000E+000	7	...........	0
	207	20.8	-2.92903E-001	2.20413E-006	0.00000E+000	-2.92980E-001	0.00000E+000	7	...........	0
	210	21.1	-2.90001E-001	2.42053E-006	0.00000E+000	-2.89980E-001	0.00000E+000	7	...........	0
	213	21.4	-2.86998E-001	2.65059E-006	0.00000E+000	-2.86980E-001	0.00000E+000	7	...........	0
	216	21.7	-2.84095E-001	2.78062E-006	0.00000E+000	-2.83980E-001	0.00000E+000	7	...........	0
	219	22	-2.80992E-001	2.46787E-006	0.00000E+000	-2.80980E-001	0.00000E+000	7	...........	0
	222	22.3	-2.77989E-001	2.92233E-006	0.00000E+000	-2.77979E-001	0.00000E+000	7	...........	0
	225	22.6	-2.74986E-001	3.21774E-006	0.00000E+000	-2.74979E-001	0.00000E+000	7	...........	0
	228	22.9	-2.71983E-001	3.08004E-006	0.00000E+000	-2.71979E-001	0.00000E+000	7	...........	0
	231	23.2	-2.69080E-001	3.22975E-006	0.00000E+000	-2.68979E-001	0.00000E+000	7	...........	0
	234	23.5	-2.66077E-001	3.44614E-006	0.00000E+000	-2.65979E-001	0.00000E+000	7	...........	0
	237	23.8	-2.62974E-001	3.32777E-006	0.00000E+000	-2.62979E-001	0.00000E+000	7	...........	0
	240	24.1	-2.60071E-001	3.43514E-006	0.00000E+000	-2.59979E-001	0.00000E+000	7	...........	0
	243	24.4	-2.57068E-001	2.53222E-006	0.00000E+000	-2.56979E-001	0.00000E+000	7	...........	0
	246	24.7	-2.53965E-001	2.68193E-006	0.00000E+000	-2.53978E-001	0.00000E+000	7	...........	0
	249	25	-2.50962E-001	2.53456E-006	0.00000E+000	-2.50978E-001	0.00000E+000	7	...........	0
	252	25.3	-2.47959E-001	2.64792E-006	0.00000E+000	-2.47978E-001	0.00000E+000	7	...........	0
	255	25.6	-2.44856E-001	3.22408E-006	0.00000E+000	-2.44978E-001	0.00000E+000	7	...........	0
	258	25.9	-2.41923E-001	3.26576E-006	0.00000E+000	-2.41978E-001	0.00000E+000	7	...........	0
	261	26.2	-2.38920E-001	3.46848E-006	0.00000E+000	-2.38978E-001	0.00000E+000	7	...........	0
	264	26.5	-2.35927E-001	3.66087E-006	0.00000E+000	-2.35978E-001	0.00000E+000	7	...........	0
	267	26.8	-2.32934E-001	4.03364E-006	0.00000E+000	-2.32978E-001	0.00000E+000	7	...........	0
	270	27.1	-2.29941E-001	4.45475E-006	0.00000E+000	-2.29977E-001	0.00000E+000	7	...........	0
	273	27.4	-2.26948E-001	4.49910E-006	0.00000E+000	-2.26977E-001	0.00000E+000	7	...........	0
	276	27.7	-2.23935E-001	4.36906E-006	0.00000E+000	-2.23977E-001	0.00000E+000	7	...........	0
	279	28	-2.20932E-001	3.96628E-006	0.00000E+000	-2.20977E-001	0.00000E+000	7	...........	0
	282	28.3	-2.17939E-001	5.17162E-006	0.00000E+000	-2.17977E-001	0.00000E+000	7	...........	0
	285	28.6	-2.14936E-001	5.22130E-006	0.00000E+000	-2.14977E-001	0.00000E+000	7	...........	0
	288	28.9	-2.11933E-001	5.73844E-006	0.00000E+000	-2.11977E-001	0.00000E+000	7	...........	0
	291	29.2	-2.08980E-001	4.95089E-006	0.00000E+000	-2.08977E-001	0.00000E+000	7	...........	0
	294	29.5	-2.05917E-001	4.13966E-006	0.00000E+000	-2.05976E-001	0.00000E+000	7	...........	0
	297	29.8	-2.02944E-001	4.20768E-006	0.00000E+000	-2.02976E-001	0.00000E+000	7	...........	0
	300	30.1	-1.99911E-001	4.14900E-006	0.00000E+000	-1.99976E-001	0.00000E+000	7	...........	0
	303	30.4	-1.96938E-001	4.21469E-006	0.00000E+000	-1.96976E-001	0.00000E+000	7	...........	0
	306	30.7	-1.93925E-001	4.68281E-006	0.00000E+000	-1.93976E-001	0.00000E+000	7	...........	0
	309	31	-1.90922E-001	4.52444E-006	0.00000E+000	-1.90976E-001	0.00000E+000	7	...........	0
	312	31.3	-1.87929E-001	4.78851E-006	0.00000E+000	-1.87976E-001	0.00000E+000	7	...........	0
	315	31.6	-1.84936E-001	4.87253E-006	0.00000E+000	-1.84976E-001	0.00000E+000	7	...........	0
	318	31.9	-1.81923E-001	5.08192E-006	0.00000E+000	-1.81975E-001	0.00000E+000	7	...........	0
	321	32.2	-1.78920E-001	5.03558E-006	0.00000E+000	-1.78975E-001	0.00000E+000	7	...........	0
	324	32.5	-1.75928E-001	5.81079E-006	0.00000E+000	-1.75975E-001	0.00000E+000	7	...........	0
	327	32.8	-1.72925E-001	5.97884E-006	0.00000E+000	-1.72975E-001	0.00000E+000	7	...........	0
	330	33.1	-1.69942E-001	6.09253E-006	0.00000E+000	-1.69975E-001	0.00000E+000	7	...........	0
	333	33.4	-1.67009E-001	6.57033E-006	0.00000E+000	-1.67025E-001	0.00000E+000	7	...........	0
	336	33.7	-1.64006E-001	6.30826E-006	0.00000E+000	-1.64025E-001	0.00000E+000	7	...........	0
	339	34	-1.61003E-001	5.90282E-006	0.00000E+000	-1.61025E-001	0.00000E+000	7	...........	0
	342	34.3	-1.58010E-001	5.82613E-006	0.00000E+000	-1.58025E-001	0.00000E+000	7	...........	0
	345	34.6	-1.54997E-001	7.05713E-006	0.00000E+000	-1.55024E-001	0.00000E+000	7	...........	0
	348	34.9	-1.52044E-001	7.72265E-006	0.00000E+000	-1.52024E-001	0.00000E+000	7	...........	0
	351	35.2	-1.49051E-001	8.09675E-006	0.00000E+000	-1.49024E-001	0.00000E+000	7	...........	0
	354	35.5	-1.46018E-001	7.57828E-006	0.00000E+000	-1.46024E-001	0.00000E+000	7	...........	0
	357	35.8	-1.43045E-001	8.13043E-006	0.00000E+000	-1.43024E-001	0.00000E+000	7	...........	0
	360	36.1	-1.39962E-001	8.45685E-006	0.00000E+000	-1.40024E-001	0.00000E+000	7	...........	0
	363	36.4	-1.37019E-001	8.33282E-006	0.00000E+000	-1.37024E-001	0.00000E+000	7	...........	0
	366	36.7	-1.34046E-001	8.37783E-006	0.00000E+000	-1.34024E-001	0.00000E+000	7	...........	0
	369	37	-1.31053E-001	8.39884E-006	0.00000E+000	-1.31023E-001	0.00000E+000	7	...........	0
	372	37.3	-1.28020E-001	8.83029E-006	0.00000E+000	-1.28023E-001	0.00000E+000	7	...........	0
	375	37.6	-1.25047E-001	8.37716E-006	0.00000E+000	-1.25023E-001	0.00000E+000	7	...........	0
	378	37.9	-1.22014E-001	9.11837E-006	0.00000E+000	-1.22023E-001	0.00000E+000	7	...........	0
	381	38.2	-1.18971E-001	8.26113E-006	0.00000E+000	-1.19023E-001	0.00000E+000	7	...........	0
	384	38.5	-1.15998E-001	7.06113E-006	0.00000E+000	-1.16023E-001	0.00000E+000	7	...........	0
	387	38.8	-1.13025E-001	7.16116E-006	0.00000E+000	-1.13023E-001	0.00000E+000	7	...........	0
	390	39.1	-1.10012E-001	7.40912E-006	0.00000E+000	-1.10023E-001	0.00000E+000	8	...........	0
	393	39.4	-1.07029E-001	7.59247E-006	0.00000E+000	-1.07022E-001	0.00000E+000	8	...........	0
	396	39.7	-1.04016E-001	8.11584E-006	0.00000E+000	-1.04022E-001	0.00000E+000	8	...........	0
	399	40	-1.01043E-001	7.91583E-006	0.00000E+000	-1.01022E-001	0.00000E+000	8	...........	0
	402	40.3	-9.80200E-002	7.76582E-006	0.00000E+000	-9.80221E-002	0.00000E+000	8	...........	0
	405	40.6	-9.49769E-002	8.97923E-006	0.00000E+000	-9.50219E-002	0.00000E+000	8	...........	0
	408	40.9	-9.19940E-002	9.71595E-006	0.00000E+000	-9.20218E-002	0.00000E+000	8	...........	0
	411	41.2	-8.90210E-002	9.12258E-006	0.00000E+000	-8.90217E-002	0.00000E+000	8	...........	0
	414	41.5	-8.60180E-002	9.12591E-006	0.00000E+000	-8.60216E-002	0.00000E+000	8	...........	0
	417	41.8	-8.30150E-002	8.49253E-006	0.00000E+000	-8.30214E-002	0.00000E+000	8	...........	0
	420	42.1	-8.00120E-002	9.05257E-006	0.00000E+000	-8.00213E-002	0.00000E+000	8	...........	0
	423	42.4	-7.70090E-002	9.03924E-006	0.00000E+000	-7.70212E-002	0.00000E+000	8	...........	0
	426	42.7	-7.40060E-002	9.99931E-006	0.00000E+000	-7.40211E-002	0.00000E+000	8	...........	0
	429	43	-7.10131E-002	9.91263E-006	0.00000E+000	-7.10210E-002	0.00000E+000	8	...........	0
	432	43.3	-6.79901E-002	1.10727E-005	0.00000E+000	-6.80208E-002	0.00000E+000	8	...........	0
	435	43.6	-6.49971E-002	1.22228E-005	0.00000E+000	-6.50207E-002	0.00000E+000	8	...........	0
	438	43.9	-6.20241E-002	1.25128E-005	0.00000E+000	-6.20206E-002	0.00000E+000	8	...........	0
	441	44.2	-5.90011E-002	1.24495E-005	0.00000E+000	-5.90205E-002	0.00000E+000	8	...........	0
	444	44.5	-5.60181E-002	1.24461E-005	0.00000E+000	-5.60203E-002	0.00000E+000	8	...........	0
	447	44.8	-5.30152E-002	1.27728E-005	0.00000E+000	-5.30202E-002	0.00000E+000	8	...........	0
	450	45.1	-5.00122E-002	1.35196E-005	0.00000E+000	-5.00201E-002	0.00000E+000	8	...........	0
	453	45.4	-4.70392E-002	1.33695E-005	0.00000E+000	-4.70200E-002	0.00000E+000	8	...........	0
	456	45.7	-4.40062E-002	1.37129E-005	0.00000E+000	-4.40199E-002	0.00000E+000	8	...........	0
	459	46	-4.10032E-002	1.32195E-005	0.00000E+000	-4.10197E-002	0.00000E+000	8	...........	0
	462	46.3	-3.80002E-002	1.23495E-005	0.00000E+000	-3.80196E-002	0.00000E+000	8	...........	0
	465	46.6	-3.50172E-002	1.22095E-005	0.00000E+000	-3.50195E-002	0.00000E+000	8	...........	0
	468	46.9	-3.20243E-002	1.28928E-005	0.00000E+000	-3.20194E-002	0.00000E+000	8	...........	0
	471	47.2	-2.90313E-002	1.26195E-005	0.00000E+000	-2.90192E-002	0.00000E+000	8	...........	0
	474	47.5	-2.60283E-002	1.31795E-005	0.00000E+000	-2.60191E-002	0.00000E+000	8	...........	0
	477	47.8	-2.30030E-002	1.40896E-005	0.00000E+000	-2.30190E-002	0.00000E+000	8	...........	0
	480	48.1	-2.00111E-002	1.42996E-005	0.00000E+000	-2.00189E-002	0.00000E+000	8	...........	0
	483	48.4	-1.69931E-002	1.43063E-005	0.00000E+000	-1.70187E-002	0.00000E+000	8	...........	0
	486	48.7	-1.40251E-002	1.45996E-005	0.00000E+000	-1.40186E-002	0.00000E+000	8	...........	0
	489	49	-1.09961E-002	1.49763E-005	0.00000E+000	-1.10185E-002	0.00000E+000	8	...........	0
	492	49.3	-8.01513E-003	1.54830E-005	0.00000E+000	-8.01838E-003	0.00000E+000	8	...........	0
	495	49.6	-5.01314E-003	1.57864E-005	0.00000E+000	-5.01826E-003	0.00000E+000	8	...........	0
	498	49.9	-2.03718E-003	1.63631E-005	0.00000E+000	-2.01814E-003	0.00000E+000	8	...........	0
	501	50.2	9.77826E-004	1.69031E-005	0.00000E+000	9.81987E-004	0.00000E+000	8	...........	0
	504	50.5	3.97681E-003	1.69598E-005	0.00000E+000	3.98211E-003	0.00000E+000	8	...........	0
	507	50.8	6.95978E-003	1.72265E-005	0.00000E+000	6.98223E-003	0.00000E+000	8	...........	0
	510	51.1	9.95776E-003	1.85599E-005	0.00000E+000	9.98235E-003	0.00000E+000	8	...........	0
	513	51.4	1.29457E-002	1.91033E-005	0.00000E+000	1.29825E-002	0.00000E+000	8	...........	0
	516	51.7	1.59928E-002	1.99400E-005	0.00000E+000	1.59826E-002	0.00000E+000	8	...........	0
	519	52	1.89797E-002	1.96200E-005	0.00000E+000	1.89827E-002	0.00000E+000	8	...........	0
	522	52.3	2.19637E-002	2.07567E-005	0.00000E+000	2.19828E-002	0.00000E+000	8	...........	0
	525	52.6	2.49667E-002	2.12668E-005	0.00000E+000	2.49830E-002	0.00000E+000	8	...........	0
	528	52.9	2.80155E-002	2.28435E-005	0.00000E+000	2.79831E-002	0.00000E+000	8	...........	0
	531	53.2	3.09985E-002	2.29769E-005	0.00000E+000	3.09832E-002	0.00000E+000	8	...........	0
	534	53.5	3.39814E-002	2.46337E-005	0.00000E+000	3.39833E-002	0.00000E+000	8	...........	0
	537	53.8	3.69944E-002	2.52770E-005	0.00000E+000	3.69835E-002	0.00000E+000	8	...........	0
	540	54.1	3.99874E-002	2.61138E-005	0.00000E+000	3.99836E-002	0.00000E+000	8	...........	0
	543	54.4	4.29604E-002	2.72005E-005	0.00000E+000	4.29837E-002	0.00000E+000	8	...........	0
	546	54.7	4.59634E-002	2.67905E-005	0.00000E+000	4.59838E-002	0.00000E+000	8	...........	0
	549	55	4.90164E-002	2.84806E-005	0.00000E+000	4.89840E-002	0.00000E+000	8	...........	0
	552	55.3	5.19593E-002	2.97874E-005	0.00000E+000	5.19841E-002	0.00000E+000	8	...........	0
	555	55.6	5.49924E-002	3.04607E-005	0.00000E+000	5.49842E-002	0.00000E+000	8	...........	0
	558	55.9	5.79753E-002	3.13941E-005	0.00000E+000	5.79843E-002	0.00000E+000	8	...........	0
	561	56.2	6.09783E-002	3.20508E-005	0.00000E+000	6.09844E-002	0.00000E+000	8	...........	0
	564	56.5	6.39913E-002	3.25175E-005	0.00000E+000	6.39846E-002	0.00000E+000	8	...........	0
	567	56.8	6.69943E-002	3.22342E-005	0.00000E+000	6.69847E-002	0.00000E+000	8	...........	0
	570	57.1	7.00073E-002	3.37876E-005	0.00000E+000	6.99848E-002	0.00000E+000	8	...........	0
	573	57.4	7.29402E-002	3.43477E-005	0.00000E+000	7.29849E-002	0.00000E+000	8	...........	0
	576	57.7	7.59632E-002	3.54511E-005	0.00000E+000	7.59851E-002	0.00000E+000	8	...........	0
	579	58	7.89662E-002	3.62678E-005	0.00000E+000	7.89852E-002	0.00000E+000	8	...........	0
	582	58.3	8.19792E-002	3.62745E-005	0.00000E+000	8.19853E-002	0.00000E+000	8	...........	0
	585	58.6	8.49822E-002	3.66845E-005	0.00000E+000	8.49854E-002	0.00000E+000	8	...........	0
	588	58.9	8.79652E-002	3.82213E-005	0.00000E+000	8.79855E-002	0.00000E+000	8	...........	0
	591	59.2	9.09782E-002	3.91247E-005	0.00000E+000	9.09857E-002	0.00000E+000	8	...........	0
	594	59.5	9.39812E-002	4.01614E-005	0.00000E+000	9.39858E-002	0.00000E+000	8	...........	0
	597	59.8	9.69842E-002	4.20949E-005	0.00000E+000	9.69859E-002	0.00000E+000	8	...........	0
	600	60.1	9.99471E-002	4.18982E-005	0.00000E+000	9.99860E-002	0.00000E+000	8	...........	0
	603	60.4	1.02970E-001	4.27083E-005	0.00000E+000	1.02986E-001	0.00000E+000	8	...........	0
	606	60.7	1.05953E-001	4.40350E-005	0.00000E+000	1.05986E-001	0.00000E+000	8	...........	0
	609	61	1.08976E-001	4.40383E-005	0.00000E+000	1.08986E-001	0.00000E+000	8	...........	0
	612	61.3	1.11949E-001	4.50884E-005	0.00000E+000	1.11987E-001	0.00000E+000	8	...........	0
	615	61.6	1.15012E-001	4.66319E-005	0.00000E+000	1.14987E-001	0.00000E+000	8	...........	0
	618	61.9	1.17975E-001	4.71052E-005	0.00000E+000	1.17987E-001	0.00000E+000	8	...........	0
	621	62.2	1.20968E-001	4.79620E-005	0.00000E+000	1.20987E-001	0.00000E+000	8	...........	0
	624	62.5	1.23961E-001	4.92854E-005	0.00000E+000	1.23987E-001	0.00000E+000	8	...........	0
	627	62.8	1.26954E-001	4.96754E-005	0.00000E+000	1.26987E-001	0.00000E+000	8	...........	0
	630	63.1	1.29947E-001	4.93787E-005	0.00000E+000	1.29987E-001	0.00000E+000	8	...........	0
	633	63.4	1.32980E-001	4.80720E-005	0.00000E+000	1.32987E-001	0.00000E+000	8	...........	0
	636	63.7	1.35973E-001	4.90754E-005	0.00000E+000	1.35988E-001	0.00000E+000	8	...........	0
	639	64	1.38966E-001	4.98421E-005	0.00000E+000	1.38988E-001	0.00000E+000	8	...........	0
	642	64.3	1.41979E-001	5.09055E-005	0.00000E+000	1.41988E-001	0.00000E+000	8	...........	0
	645	64.6	1.45002E-001	5.10655E-005	0.00000E+000	1.44988E-001	0.00000E+000	8	...........	0
	648	64.9	1.47995E-001	5.13655E-005	0.00000E+000	1.47988E-001	0.00000E+000	8	...........	0
	651	65.2	1.50938E-001	5.15589E-005	0.00000E+000	1.50988E-001	0.00000E+000	8	...........	0
	654	65.5	1.53951E-001	5.28623E-005	0.00000E+000	1.53988E-001	0.00000E+000	8	...........	0
	657	65.8	1.56964E-001	5.39190E-005	0.00000E+000	1.56988E-001	0.00000E+000	8	...........	0
	660	66.1	1.59987E-001	5.45457E-005	0.00000E+000	1.59988E-001	0.00000E+000	8	...........	0
	663	66.4	1.62940E-001	5.59525E-005	0.00000E+000	1.62989E-001	0.00000E+000	8	...........	0
	666	66.7	1.65933E-001	5.64892E-005	0.00000E+000	1.65989E-001	0.00000E+000	8	...........	0
	669	67	1.68946E-001	5.65626E-005	0.00000E+000	1.68989E-001	0.00000E+000	8	...........	0
	672	67.3	1.71959E-001	5.87527E-005	0.00000E+000	1.71989E-001	0.00000E+000	8	...........	0
	675	67.6	1.74942E-001	5.92694E-005	0.00000E+000	1.74989E-001	0.00000E+000	8	...........	0
	678	67.9	1.77935E-001	5.93894E-005	0.00000E+000	1.77989E-001	0.00000E+000	8	...........	0
	681	68.2	1.80958E-001	6.00628E-005	0.00000E+000	1.80989E-001	0.00000E+000	8	...........	0
	684	68.5	1.83961E-001	6.11162E-005	0.00000E+000	1.83989E-001	0.00000E+000	8	...........	0
	687	68.8	1.86974E-001	6.09062E-005	0.00000E+000	1.86990E-001	0.00000E+000	8	...........	0
	690	69.1	1.89967E-001	6.13296E-005	0.00000E+000	1.89990E-001	0.00000E+000	8	...........	0
	693	69.4	1.92970E-001	6.18996E-005	0.00000E+000	1.92990E-001	0.00000E+000	8	...........	0
	696	69.7	1.95943E-001	6.24596E-005	0.00000E+000	1.95990E-001	0.00000E+000	8	...........	0
	699	70	1.98946E-001	6.41831E-005	0.00000E+000	1.98990E-001	0.00000E+000	8	...........	0
	702	70.3	2.01979E-001	6.50231E-005	0.00000E+000	2.01990E-001	0.00000E+000	8	...........	0
	705	70.6	2.04962E-001	6.55899E-005	0.00000E+000	2.04990E-001	0.00000E+000	8	...........	0
	708	70.9	2.07955E-001	6.61066E-005	0.00000E+000	2.07990E-001	0.00000E+000	8	...........	0
	711	71.2	2.10948E-001	6.66233E-005	0.00000E+000	2.10991E-001	0.00000E+000	8	...........	0
	714	71.5	2.14031E-001	6.68266E-005	0.00000E+000	2.13991E-001	0.00000E+000	8	...........	0
	717	71.8	2.16944E-001	6.71366E-005	0.00000E+000	2.16991E-001	0.00000E+000	8	...........	0
	720	72.1	2.19957E-001	6.73600E-005	0.00000E+000	2.19991E-001	0.00000E+000	8	...........	0
	723	72.4	2.22889E-001	6.88701E-005	0.00000E+000	2.22991E-001	0.00000E+000	8	...........	0
	726	72.7	2.25973E-001	7.03869E-005	0.00000E+000	2.25991E-001	0.00000E+000	8	...........	0
	729	73	2.28945E-001	7.08169E-005	0.00000E+000	2.28991E-001	0.00000E+000	8	...........	0
	732	73.3	2.31948E-001	7.36337E-005	0.00000E+000	2.31991E-001	0.00000E+000	8	...........	0
	735	73.6	2.34961E-001	7.36204E-005	0.00000E+000	2.34992E-001	0.00000E+000	8	...........	0
	738	73.9	2.37934E-001	7.49238E-005	0.00000E+000	2.37992E-001	0.00000E+000	8	...........	0
	741	74.2	2.40937E-001	7.43105E-005	0.00000E+000	2.40992E-001	0.00000E+000	8	...........	0
	744	74.5	2.43930E-001	7.55606E-005	0.00000E+000	2.43992E-001	0.00000E+000	8	...........	0
	747	74.8	2.46953E-001	7.40538E-005	0.00000E+000	2.46992E-001	0.00000E+000	8	...........	0
	750	75.1	2.49966E-001	7.34271E-005	0.00000E+000	2.49992E-001	0.00000E+000	8	...........	0
	753	75.4	2.52959E-001	7.33571E-005	0.00000E+000	2.52992E-001	0.00000E+000	8	...........	0
	756	75.7	2.55932E-001	7.42171E-005	0.00000E+000	2.55992E-001	0.00000E+000	8	...........	0
	759	76	2.58895E-001	7.44105E-005	0.00000E+000	2.58993E-001	0.00000E+000	8	...........	0
	762	76.3	2.61908E-001	7.43071E-005	0.00000E+000	2.61993E-001	0.00000E+000	8	...........	0
	765	76.6	2.64911E-001	7.57239E-005	0.00000E+000	2.64993E-001	0.00000E+000	8	...........	0
	768	76.9	2.68055E-001	7.55572E-005	0.00000E+000	2.67993E-001	0.00000E+000	8	...........	0
	771	77.2	2.70958E-001	7.88308E-005	0.00000E+000	2.70993E-001	0.00000E+000	8	...........	0
	774	77.5	2.74161E-001	7.76274E-005	0.00000E+000	2.73993E-001	0.00000E+000	8	...........	0
	777	77.8	2.77064E-001	7.73173E-005	0.00000E+000	2.76993E-001	0.00000E+000	8	...........	0
	780	78.1	2.80067E-001	7.86308E-005	0.00000E+000	2.79993E-001	0.00000E+000	8	...........	0
	783	78.4	2.83070E-001	7.93442E-005	0.00000E+000	2.82993E-001	0.00000E+000	8	...........	0
	786	78.7	2.86073E-001	8.01809E-005	0.00000E+000	2.85994E-001	0.00000E+000	8	...........	0
	789	79	2.89076E-001	7.94875E-005	0.00000E+000	2.88994E-001	0.00000E+000	8	...........	0
	792	79.3	2.92079E-001	8.05142E-005	0.00000E+000	2.91994E-001	0.00000E+000	8	...........	0
	795	79.6	2.95082E-001	8.01175E-005	0.00000E+000	2.94994E-001	0.00000E+000	8	...........	0
	798	79.9	2.98085E-001	8.03009E-005	0.00000E+000	2.97994E-001	0.00000E+000	8	...........	0
	801	80.2	3.01088E-001	8.01275E-005	0.00000E+000	3.00994E-001	0.00000E+000	8	...........	0
	804	80.5	3.04091E-001	8.23910E-005	0.00000E+000	3.03994E-001	0.00000E+000	8	...........	0
	807	80.8	3.07094E-001	8.14676E-005	0.00000E+000	3.06994E-001	0.00000E+000	8	...........	0
	810	81.1	3.09997E-001	8.11943E-005	0.00000E+000	3.09995E-001	0.00000E+000	8	...........	0
	813	81.4	3.13000E-001	8.19977E-005	0.00000E+000	3.12995E-001	0.00000E+000	8	...........	0
	816	81.7	3.16003E-001	8.24510E-005	0.00000E+000	3.15995E-001	0.00000E+000	8	...........	0
	819	82	3.19006E-001	8.37011E-005	0.00000E+000	3.18995E-001	0.00000E+000	8	...........	0
	822	82.3	3.22209E-001	8.38145E-005	0.00000E+000	3.21995E-001	0.00000E+000	8	...........	0
	825	82.6	3.25112E-001	8.46545E-005	0.00000E+000	3.24995E-001	0.00000E+000	8	...........	0
	828	82.9	3.28115E-001	8.48979E-005	0.00000E+000	3.27995E-001	0.00000E+000	8	...........	0
	831	83.2	3.31018E-001	8.50846E-005	0.00000E+000	3.30995E-001	0.00000E+000	8	...........	0
	834	83.5	3.34021E-001	8.61184E-005	0.00000E+000	3.33996E-001	0.00000E+000	9	...........	0
	837	83.8	3.37024E-001	8.67510E-005	0.00000E+000	3.36996E-001	0.00000E+000	9	...........	0
	840	84.1	3.40027E-001	8.63181E-005	0.00000E+000	3.39996E-001	0.00000E+000	9	...........	0
	843	84.4	3.43130E-001	8.62848E-005	0.00000E+000	3.42996E-001	0.00000E+000	9	...........	0
	846	84.7	3.46133E-001	8.68175E-005	0.00000E+000	3.45996E-001	0.00000E+000	9	...........	0
	849	85	3.49036E-001	8.68841E-005	0.00000E+000	3.48996E-001	0.00000E+000	9	...........	0
	852	85.3	3.52039E-001	8.79162E-005	0.00000E+000	3.51996E-001	0.00000E+000	9	...........	0
	855	85.6	3.55142E-001	8.89484E-005	0.00000E+000	3.54996E-001	0.00000E+000	9	...........	0
	858	85.9	3.58044E-001	9.06464E-005	0.00000E+000	3.57997E-001	0.00000E+000	9	...........	0
	861	86.2	3.61148E-001	9.20447E-005	0.00000E+000	3.60997E-001	0.00000E+000	9	...........	0
	864	86.5	3.64151E-001	9.32433E-005	0.00000E+000	3.63997E-001	0.00000E+000	9	...........	0
	867	86.8	3.67154E-001	9.39092E-005	0.00000E+000	3.66997E-001	0.00000E+000	9	...........	0
	870	87.1	3.70157E-001	9.35763E-005	0.00000E+000	3.69997E-001	0.00000E+000	9	...........	0
	873	87.4	3.73160E-001	9.47083E-005	0.00000E+000	3.72997E-001	0.00000E+000	9	...........	0
	876	87.7	3.76162E-001	9.49080E-005	0.00000E+000	3.75997E-001	0.00000E+000	9	...........	0
	879	88	3.79065E-001	9.57737E-005	0.00000E+000	3.78997E-001	0.00000E+000	9	...........	0
	882	88.3	3.81968E-001	9.58070E-005	0.00000E+000	3.81998E-001	0.00000E+000	9	...........	0
	885	88.6	3.85071E-001	9.57404E-005	0.00000E+000	3.84998E-001	0.00000E+000	9	...........	0
	888	88.9	3.88074E-001	9.68391E-005	0.00000E+000	3.87998E-001	0.00000E+000	9	...........	0
	891	89.2	3.91177E-001	9.71388E-005	0.00000E+000	3.90998E-001	0.00000E+000	9	...........	0
	894	89.5	3.94180E-001	9.65395E-005	0.00000E+000	3.93998E-001	0.00000E+000	9	...........	0
	897	89.8	3.97083E-001	9.73052E-005	0.00000E+000	3.96998E-001	0.00000E+000	9	...........	0
	900	90.1	4.00086E-001	9.71721E-005	0.00000E+000	3.99998E-001	0.00000E+000	9	...........	0
	903	90.4	4.03089E-001	9.58403E-005	0.00000E+000	4.02998E-001	0.00000E+000	9	...........	0
	906	90.7	4.06092E-001	9.60401E-005	0.00000E+000	4.05999E-001	0.00000E+000	9	...........	0
	909	91	4.09095E-001	9.78380E-005	0.00000E+000	4.08999E-001	0.00000E+000	9	...........	0
	912	91.3	4.12098E-001	9.98689E-005	0.00000E+000	4.11999E-001	0.00000E+000	9	...........	0
	915	91.6	4.15201E-001	1.00002E-004	0.00000E+000	4.14999E-001	0.00000E+000	9	...........	0
	918	91.9	4.18104E-001	1.00335E-004	0.00000E+000	4.17999E-001	0.00000E+000	9	...........	0
	921	92.2	4.21107E-001	1.00368E-004	0.00000E+000	4.20999E-001	0.00000E+000	9	...........	0
	924	92.5	4.24110E-001	1.01101E-004	0.00000E+000	4.23999E-001	0.00000E+000	9	...........	0
	927	92.8	4.27013E-001	1.01900E-004	0.00000E+000	4.26999E-001	0.00000E+000	9	...........	0
	930	93.1	4.30216E-001	1.02366E-004	0.00000E+000	4.30000E-001	0.00000E+000	9	...........	0
	933	93.4	4.33219E-001	1.02033E-004	0.00000E+000	4.33000E-001	0.00000E+000	9	...........	0
	936	93.7	4.36122E-001	1.02000E-004	0.00000E+000	4.36000E-001	0.00000E+000	9	...........	0
	939	94	4.39125E-001	1.03431E-004	0.00000E+000	4.39000E-001	0.00000E+000	9	...........	0
	942	94.3	4.42228E-001	1.02466E-004	0.00000E+000	4.42000E-001	0.00000E+000	9	...........	0
	945	94.6	4.45131E-001	1.02532E-004	0.00000E+000	4.45000E-001	0.00000E+000	9	...........	0
	948	94.9	4.48134E-001	1.03731E-004	0.00000E+000	4.48000E-001	0.00000E+000	9	...........	0
	951	95.2	4.51137E-001	1.02000E-004	0.00000E+000	4.51000E-001	0.00000E+000	9	...........	0
	954	95.5	4.54140E-001	1.01034E-004	0.00000E+000	4.54001E-001	0.00000E+000	9	...........	0
	957	95.8	4.57143E-001	1.02166E-004	0.00000E+000	4.57001E-001	0.00000E+000	9	...........	0
	960	96.1	4.60046E-001	1.00968E-004	0.00000E+000	4.60001E-001	0.00000E+000	9	...........	0
	963	96.4	4.63149E-001	1.01700E-004	0.00000E+000	4.63001E-001	0.00000E+000	9	...........	0
	966	96.7	4.66152E-001	1.02066E-004	0.00000E+000	4.66001E-001	0.00000E+000	9	...........	0
	969	97	4.69155E-001	1.03165E-004	0.00000E+000	4.69001E-001	0.00000E+000	9	...........	0
	972	97.3	4.72058E-001	1.02899E-004	0.00000E+000	4.72001E-001	0.00000E+000	9	...........	0
	975	97.6	4.75061E-001	1.03631E-004	0.00000E+000	4.75001E-001	0.00000E+000	9	...........	0
	978	97.9	4.78164E-001	1.02699E-004	0.00000E+000	4.78001E-001	0.00000E+000	9	...........	0
	981	98.2	4.81067E-001	1.03232E-004	0.00000E+000	4.81002E-001	0.00000E+000	9	...........	0
	984	98.5	4.84070E-001	1.02799E-004	0.00000E+000	4.84002E-001	0.00000E+000	9	...........	0
	987	98.8	4.87073E-001	1.03431E-004	0.00000E+000	4.87002E-001	0.00000E+000	9	...........	0
	990	99.1	4.90176E-001	1.04197E-004	0.00000E+000	4.90002E-001	0.00000E+000	9	...........	0
	993	99.4	4.93179E-001	1.06494E-004	0.00000E+000	4.93002E-001	0.00000E+000	9	...........	0
	996	99.7	4.96082E-001	1.07060E-004	0.00000E+000	4.96002E-001	0.00000E+000	9	...........	0
	999	100	4.99085E-001	1.08126E-004	0.00000E+000	4.99002E-001	0.00000E+000	9	...........	0
	1002	100.3	5.02188E-001	1.08958E-004	0.00000E+000	5.02002E-001	0.00000E+000	9	...........	0
	1005	100.6	5.05191E-001	1.08925E-004	0.00000E+000	5.05003E-001	0.00000E+000	9	...........	0
	1008	100.9	5.08094E-001	1.09191E-004	0.00000E+000	5.08003E-001	0.00000E+000	9	...........	0
	1011	101.2	5.11097E-001	1.07926E-004	0.00000E+000	5.11003E-001	0.00000E+000	9	...........	0
	1014	101.5	5.14100E-001	1.10057E-004	0.00000E+000	5.14003E-001	0.00000E+000	9	...........	0
	1017	101.8	5.17103E-001	1.11455E-004	0.00000E+000	5.17003E-001	0.00000E+000	9	...........	0
	1020	102.1	5.20206E-001	1.11555E-004	0.00000E+000	5.20003E-001	0.00000E+000	9	...........	0
	1023	102.4	5.23209E-001	1.11622E-004	0.00000E+000	5.23003E-001	0.00000E+000	9	...........	0
	1026	102.7	5.26212E-001	1.11855E-004	0.00000E+000	5.26003E-001	0.00000E+000	9	...........	0
	1029	103	5.29015E-001	1.10124E-004	0.00000E+000	5.29004E-001	0.00000E+000	9	...........	0
	1032	103.3	5.32118E-001	1.11156E-004	0.00000E+000	5.32004E-001	0.00000E+000	9	...........	0
	1035	103.6	5.35121E-001	1.11355E-004	0.00000E+000	5.35004E-001	0.00000E+000	9	...........	0
	1038	103.9	5.38124E-001	1.10989E-004	0.00000E+000	5.38004E-001	0.00000E+000	9	...........	0
	1041	104.2	5.41127E-001	1.10490E-004	0.00000E+000	5.41004E-001	0.00000E+000	9	...........	0
	1044	104.5	5.44230E-001	1.11655E-004	0.00000E+000	5.44004E-001	0.00000E+000	9	...........	0
	1047	104.8	5.47133E-001	1.13120E-004	0.00000E+000	5.47004E-001	0.00000E+000	9	...........	0
	1050	105.1	5.50136E-001	1.12254E-004	0.00000E+000	5.50004E-001	0.00000E+000	9	...........	0
	1053	105.4	5.53239E-001	1.11089E-004	0.00000E+000	5.53005E-001	0.00000E+000	9	...........	0
	1056	105.7	5.56142E-001	1.09757E-004	0.00000E+000	5.56005E-001	0.00000E+000	9	...........	0
	1059	106	5.59245E-001	1.11222E-004	0.00000E+000	5.59005E-001	0.00000E+000	9	...........	0
	1062	106.3	5.62148E-001	1.10357E-004	0.00000E+000	5.62005E-001	0.00000E+000	9	...........	0
	1065	106.6	5.65251E-001	1.11655E-004	0.00000E+000	5.65005E-001	0.00000E+000	9	...........	0
	1068	106.9	5.68254E-001	1.11555E-004	0.00000E+000	5.68005E-001	0.00000E+000	9	...........	0
	1071	107.2	5.71257E-001	1.12088E-004	0.00000E+000	5.71005E-001	0.00000E+000	9	...........	0
	1074	107.5	5.74160E-001	1.11888E-004	0.00000E+000	5.74005E-001	0.00000E+000	9	...........	0
	1077	107.8	5.77163E-001	1.11855E-004	0.00000E+000	5.77006E-001	0.00000E+000	9	...........	0
	1080	108.1	5.80166E-001	1.13886E-004	0.00000E+000	5.80006E-001	0.00000E+000	9	...........	0
	1083	108.4	5.83068E-001	1.14885E-004	0.00000E+000	5.83006E-001	0.00000E+000	9	...........	0
	1086	108.7	5.86071E-001	1.16183E-004	0.00000E+000	5.86006E-001	0.00000E+000	9	...........	0
	1089	109	5.89175E-001	1.14618E-004	0.00000E+000	5.89006E-001	0.00000E+000	9	...........	0
	1092	109.3	5.92077E-001	1.15084E-004	0.00000E+000	5.92006E-001	0.00000E+000	9	...........	0
	1095	109.6	5.95181E-001	1.17548E-004	0.00000E+000	5.95006E-001	0.00000E+000	9	...........	0
	1098	109.9	5.98184E-001	1.17115E-004	0.00000E+000	5.98006E-001	0.00000E+000	9	...........	0
	1100	110.1	6.00186E-001	1.19046E-004	0.00000E+000	6.00006E-001	0.00000E+000	9	...........	0