File: LSV ZFO/ZFO_dark_reator.DTA
EXPLAIN
TAG	LSV
TITLE	LABEL	Linear Sweep Voltammetry	Test &Identifier
DATE	LABEL	7/5/2024	Date
TIME	LABEL	18:24:34	Time
NOTES	NOTES	1	&Notes...

PSTAT	PSTAT	L3FNano	Potentiostat
VINIT	POTEN	-5.00000E-001	F	&Initial E (V)
VFINAL	POTEN	6.00000E-001	F	&Final E (V)
SCANRATE	QUANT	9.99998E+000	&Scan Rate (mV/s)
STEPSIZE	QUANT	1.00000E+000	St&ep Size (mV)
IMODE	SELECTOR	0	I/E Range &Mode
IRANGE	QUANT	1.00000E+001	&Max Current (mA)
AREA	QUANT	1.00000E+000	Electrode &Area (cm^2)
ELECTRODETYPE	SELECTOR	0	Electrode Type
STRIPPING	TOGGLE	F	Used for Stripping
POLARITY	TOGGLE	F	Signal Polarity
CONDIT	TWOPARAM	F	1.50000E+001	0.00000E+000	Conditionin&g	Time(s)	E(V)
DELAY	TWOPARAM	F	3.00000E+001	0.00000E+000	Init. De&lay	Time(s)	Stab.(mV/s)
EQDELAY	QUANT	5.00000E+000	Equil. &Time (s)
IRCOMP	SELECTOR	0	IRCom&p
PFCOR	QUANT	5.00000E+001	PF Corr. (ohm)
SAMPLINGMODE	SELECTOR	0	Sampling &Mode
EOC	QUANT	0	Open Circuit (V)
PSTATMODEL	IQUANT	48	Pstat Model
PSTATSECTION	LABEL	IFC1000-07082	Pstat Section
PSTATSERIALNO	LABEL	07082	Pstat Serial Number
CTRLMODE	IQUANT	1	Control Mode
IESTAB	IQUANT	2	I/E Stability
CASPEED	IQUANT	2	Control Amp Speed
CONVENTION	IQUANT	1	Current Convention
ICHRANGE	IQUANT	2	Ich Range
ICHRANGEMODE	TOGGLE	F	Ich Auto Range
ICHOFFSETENABLE	TOGGLE	F	Ich Offset Enable
ICHOFFSET	QUANT	0	Ich Offset (V)
ICHFILTER	IQUANT	3	Ich Filter
VCHRANGE	IQUANT	2	Vch Range
VCHRANGEMODE	TOGGLE	T	Vch Auto Range
VCHOFFSETENABLE	TOGGLE	F	Vch Offset Enable
VCHOFFSET	QUANT	0	Vch Offset (V)
VCHFILTER	IQUANT	3	Vch Filter
IERANGELOWERLIMIT	IQUANT	4	I/E Range Lower Limit
IERANGEMODE	TOGGLE	T	I/E AutoRange
IERANGE	IQUANT	11	I/E Range
ACHSELECT	IQUANT	4	Ach Select
CABLEID	IQUANT	14	Cable ID
DCCALDATE	LABEL	7/3/2024	DC Calibration Date
ACCALDATE	LABEL	7/3/2024	AC Calibration Date
FRAMEWORKVERSION	QUANT	6.24	Framework Version
INSTRUMENTVERSION	LABEL	3.28	Instrument Version
CURVE	TABLE	1101
	Pt	T	Vf	Im	Vu	Sig	Ach	IERange	Over	Cycle
	#	s	V vs. Ref.	A	V	V	V	#	bits	#
	0	0.1	-5.00110E-001	-1.39019E-006	0.00000E+000	-4.99988E-001	0.00000E+000	11	...........	0
	3	0.4	-4.97107E-001	-2.01487E-006	0.00000E+000	-4.96988E-001	0.00000E+000	8	...........	0
	6	0.7	-4.94104E-001	-1.87565E-006	0.00000E+000	-4.93988E-001	0.00000E+000	7	...........	0
	9	1	-4.91201E-001	-1.85098E-006	0.00000E+000	-4.90988E-001	0.00000E+000	7	...........	0
	12	1.3	-4.88098E-001	-1.67693E-006	0.00000E+000	-4.87988E-001	0.00000E+000	7	...........	0
	15	1.6	-4.85095E-001	-1.54656E-006	0.00000E+000	-4.84988E-001	0.00000E+000	7	...........	0
	18	1.9	-4.81992E-001	-1.60091E-006	0.00000E+000	-4.81988E-001	0.00000E+000	7	...........	0
	21	2.2	-4.79089E-001	-1.56490E-006	0.00000E+000	-4.78988E-001	0.00000E+000	7	...........	0
	24	2.5	-4.76186E-001	-1.36551E-006	0.00000E+000	-4.75987E-001	0.00000E+000	7	...........	0
	27	2.8	-4.73183E-001	-1.31950E-006	0.00000E+000	-4.72987E-001	0.00000E+000	7	...........	0
	30	3.1	-4.70080E-001	-1.16979E-006	0.00000E+000	-4.69987E-001	0.00000E+000	7	...........	0
	33	3.4	-4.67077E-001	-1.52389E-006	0.00000E+000	-4.66987E-001	0.00000E+000	7	...........	0
	36	3.7	-4.64174E-001	-1.34251E-006	0.00000E+000	-4.63987E-001	0.00000E+000	7	...........	0
	39	4	-4.61071E-001	-1.15379E-006	0.00000E+000	-4.60987E-001	0.00000E+000	7	...........	0
	42	4.3	-4.57968E-001	-1.01609E-006	0.00000E+000	-4.57987E-001	0.00000E+000	7	...........	0
	45	4.6	-4.55065E-001	-1.13678E-006	0.00000E+000	-4.54987E-001	0.00000E+000	7	...........	0
	48	4.9	-4.52062E-001	-9.53401E-007	0.00000E+000	-4.51987E-001	0.00000E+000	7	...........	0
	51	5.2	-4.49159E-001	-9.28728E-007	0.00000E+000	-4.48986E-001	0.00000E+000	7	...........	0
	54	5.5	-4.46056E-001	-7.84021E-007	0.00000E+000	-4.45986E-001	0.00000E+000	7	...........	0
	57	5.8	-4.43153E-001	-7.86355E-007	0.00000E+000	-4.42986E-001	0.00000E+000	7	...........	0
	60	6.1	-4.40150E-001	-6.79659E-007	0.00000E+000	-4.39986E-001	0.00000E+000	7	...........	0
	63	6.4	-4.37147E-001	-6.33647E-007	0.00000E+000	-4.36986E-001	0.00000E+000	7	...........	0
	66	6.7	-4.34144E-001	-5.82633E-007	0.00000E+000	-4.33986E-001	0.00000E+000	7	...........	0
	69	7	-4.31041E-001	-4.93275E-007	0.00000E+000	-4.30986E-001	0.00000E+000	7	...........	0
	72	7.3	-4.28038E-001	-4.88940E-007	0.00000E+000	-4.27986E-001	0.00000E+000	7	...........	0
	75	7.6	-4.25135E-001	-4.09252E-007	0.00000E+000	-4.24985E-001	0.00000E+000	7	...........	0
	78	7.9	-4.22032E-001	-4.43594E-007	0.00000E+000	-4.21985E-001	0.00000E+000	7	...........	0
	81	8.2	-4.18929E-001	-2.28869E-007	0.00000E+000	-4.18985E-001	0.00000E+000	7	...........	0
	84	8.5	-4.16026E-001	-2.45873E-007	0.00000E+000	-4.15985E-001	0.00000E+000	7	...........	0
	87	8.8	-4.13123E-001	-2.70880E-007	0.00000E+000	-4.12985E-001	0.00000E+000	7	...........	0
	90	9.1	-4.10020E-001	-2.36871E-007	0.00000E+000	-4.09985E-001	0.00000E+000	7	...........	0
	93	9.4	-4.07117E-001	-2.30536E-007	0.00000E+000	-4.06985E-001	0.00000E+000	7	...........	0
	96	9.7	-4.04114E-001	-3.99582E-007	0.00000E+000	-4.03985E-001	0.00000E+000	7	...........	0
	99	10	-4.01011E-001	-4.30924E-007	0.00000E+000	-4.00984E-001	0.00000E+000	7	...........	0
	102	10.3	-3.98208E-001	-3.55904E-007	0.00000E+000	-3.97984E-001	0.00000E+000	7	...........	0
	105	10.6	-3.95205E-001	-3.32897E-007	0.00000E+000	-3.94984E-001	0.00000E+000	7	...........	0
	108	10.9	-3.92102E-001	-2.18199E-007	0.00000E+000	-3.91984E-001	0.00000E+000	7	...........	0
	111	11.2	-3.89099E-001	-1.91859E-007	0.00000E+000	-3.88984E-001	0.00000E+000	7	...........	0
	114	11.5	-3.86096E-001	-1.15504E-007	0.00000E+000	-3.85984E-001	0.00000E+000	7	...........	0
	117	11.8	-3.82993E-001	-7.34928E-008	0.00000E+000	-3.82984E-001	0.00000E+000	7	...........	0
	120	12.1	-3.80090E-001	1.58651E-008	0.00000E+000	-3.79984E-001	0.00000E+000	7	...........	0
	123	12.4	-3.77087E-001	7.82155E-008	0.00000E+000	-3.76983E-001	0.00000E+000	7	...........	0
	126	12.7	-3.73984E-001	-6.91583E-008	0.00000E+000	-3.73983E-001	0.00000E+000	7	...........	0
	129	13	-3.71081E-001	-1.56849E-007	0.00000E+000	-3.70983E-001	0.00000E+000	7	...........	0
	132	13.3	-3.68078E-001	-1.46513E-007	0.00000E+000	-3.67983E-001	0.00000E+000	7	...........	0
	135	13.6	-3.65075E-001	-2.90552E-007	0.00000E+000	-3.64983E-001	0.00000E+000	7	...........	0
	138	13.9	-3.62072E-001	-2.64212E-007	0.00000E+000	-3.61983E-001	0.00000E+000	7	...........	0
	141	14.2	-3.59069E-001	-2.17532E-007	0.00000E+000	-3.58983E-001	0.00000E+000	7	...........	0
	144	14.5	-3.56066E-001	-4.37259E-007	0.00000E+000	-3.55983E-001	0.00000E+000	7	...........	0
	147	14.8	-3.53163E-001	-1.90525E-007	0.00000E+000	-3.52982E-001	0.00000E+000	7	...........	0
	150	15.1	-3.50160E-001	-1.23507E-007	0.00000E+000	-3.49982E-001	0.00000E+000	7	...........	0
	153	15.4	-3.47057E-001	-2.36204E-007	0.00000E+000	-3.46982E-001	0.00000E+000	7	...........	0
	156	15.7	-3.44054E-001	-3.09891E-007	0.00000E+000	-3.43982E-001	0.00000E+000	7	...........	0
	159	16	-3.41051E-001	-9.47521E-009	0.00000E+000	-3.40982E-001	0.00000E+000	7	...........	0
	162	16.3	-3.38048E-001	-1.68519E-007	0.00000E+000	-3.37982E-001	0.00000E+000	7	...........	0
	165	16.6	-3.35045E-001	-9.91665E-008	0.00000E+000	-3.34982E-001	0.00000E+000	7	...........	0
	168	16.9	-3.32042E-001	-3.48568E-007	0.00000E+000	-3.31982E-001	0.00000E+000	7	...........	0
	171	17.2	-3.29140E-001	-2.28535E-007	0.00000E+000	-3.28982E-001	0.00000E+000	7	...........	0
	174	17.5	-3.26036E-001	-1.70519E-007	0.00000E+000	-3.25981E-001	0.00000E+000	7	...........	0
	177	17.8	-3.23033E-001	-1.89858E-007	0.00000E+000	-3.22981E-001	0.00000E+000	7	...........	0
	180	18.1	-3.20030E-001	-1.43845E-007	0.00000E+000	-3.19981E-001	0.00000E+000	7	...........	0
	183	18.4	-3.17128E-001	-2.84804E-008	0.00000E+000	-3.16981E-001	0.00000E+000	7	...........	0
	186	18.7	-3.14024E-001	-3.54824E-008	0.00000E+000	-3.13981E-001	0.00000E+000	7	...........	0
	189	19	-3.11122E-001	-4.81525E-008	0.00000E+000	-3.10981E-001	0.00000E+000	7	...........	0
	192	19.3	-3.08018E-001	-4.84859E-008	0.00000E+000	-3.07981E-001	0.00000E+000	7	...........	0
	195	19.6	-3.05015E-001	2.22922E-007	0.00000E+000	-3.04981E-001	0.00000E+000	7	...........	0
	198	19.9	-3.02113E-001	1.39232E-007	0.00000E+000	-3.01980E-001	0.00000E+000	7	...........	0
	201	20.2	-2.99010E-001	3.68709E-008	0.00000E+000	-2.98980E-001	0.00000E+000	7	...........	0
	204	20.5	-2.96107E-001	3.88714E-008	0.00000E+000	-2.95980E-001	0.00000E+000	7	...........	0
	207	20.8	-2.93004E-001	-3.74829E-008	0.00000E+000	-2.92980E-001	0.00000E+000	7	...........	0
	210	21.1	-2.90001E-001	3.12026E-008	0.00000E+000	-2.89980E-001	0.00000E+000	7	...........	0
	213	21.4	-2.86998E-001	-1.08169E-007	0.00000E+000	-2.86980E-001	0.00000E+000	7	...........	0
	216	21.7	-2.83995E-001	-1.55515E-007	0.00000E+000	-2.83980E-001	0.00000E+000	7	...........	0
	219	22	-2.81092E-001	-1.43179E-007	0.00000E+000	-2.80980E-001	0.00000E+000	7	...........	0
	222	22.3	-2.77989E-001	-2.04782E-008	0.00000E+000	-2.77979E-001	0.00000E+000	7	...........	0
	225	22.6	-2.74986E-001	-5.74884E-008	0.00000E+000	-2.74979E-001	0.00000E+000	7	...........	0
	228	22.9	-2.72083E-001	8.48841E-008	0.00000E+000	-2.71979E-001	0.00000E+000	7	...........	0
	231	23.2	-2.68980E-001	1.58904E-007	0.00000E+000	-2.68979E-001	0.00000E+000	7	...........	0
	234	23.5	-2.65977E-001	-3.44821E-008	0.00000E+000	-2.65979E-001	0.00000E+000	7	...........	0
	237	23.8	-2.63074E-001	2.58678E-008	0.00000E+000	-2.62979E-001	0.00000E+000	7	...........	0
	240	24.1	-2.60071E-001	-6.44903E-008	0.00000E+000	-2.59979E-001	0.00000E+000	7	...........	0
	243	24.4	-2.57168E-001	-4.81525E-008	0.00000E+000	-2.56979E-001	0.00000E+000	7	...........	0
	246	24.7	-2.53965E-001	-8.68298E-008	0.00000E+000	-2.53978E-001	0.00000E+000	7	...........	0
	249	25	-2.51062E-001	-1.03168E-007	0.00000E+000	-2.50978E-001	0.00000E+000	7	...........	0
	252	25.3	-2.48059E-001	-7.81607E-008	0.00000E+000	-2.47978E-001	0.00000E+000	7	...........	0
	255	25.6	-2.45056E-001	-2.64799E-008	0.00000E+000	-2.44978E-001	0.00000E+000	7	...........	0
	258	25.9	-2.42063E-001	-3.41487E-008	0.00000E+000	-2.41978E-001	0.00000E+000	7	...........	0
	261	26.2	-2.39070E-001	6.65457E-008	0.00000E+000	-2.38978E-001	0.00000E+000	7	...........	0
	264	26.5	-2.36027E-001	1.61238E-007	0.00000E+000	-2.35978E-001	0.00000E+000	7	...........	0
	267	26.8	-2.33064E-001	2.54931E-007	0.00000E+000	-2.32978E-001	0.00000E+000	7	...........	0
	270	27.1	-2.30051E-001	3.99637E-007	0.00000E+000	-2.29977E-001	0.00000E+000	7	...........	0
	273	27.4	-2.27078E-001	3.73630E-007	0.00000E+000	-2.26977E-001	0.00000E+000	7	...........	0
	276	27.7	-2.24035E-001	3.71963E-007	0.00000E+000	-2.23977E-001	0.00000E+000	7	...........	0
	279	28	-2.21042E-001	4.10640E-007	0.00000E+000	-2.20977E-001	0.00000E+000	7	...........	0
	282	28.3	-2.18069E-001	3.37620E-007	0.00000E+000	-2.17977E-001	0.00000E+000	7	...........	0
	285	28.6	-2.15076E-001	4.54319E-007	0.00000E+000	-2.14977E-001	0.00000E+000	7	...........	0
	288	28.9	-2.12023E-001	2.72936E-007	0.00000E+000	-2.11977E-001	0.00000E+000	7	...........	0
	291	29.2	-2.09060E-001	4.74991E-007	0.00000E+000	-2.08977E-001	0.00000E+000	7	...........	0
	294	29.5	-2.06027E-001	3.61627E-007	0.00000E+000	-2.05976E-001	0.00000E+000	7	...........	0
	297	29.8	-2.03034E-001	4.31979E-007	0.00000E+000	-2.02976E-001	0.00000E+000	7	...........	0
	300	30.1	-2.00031E-001	4.91662E-007	0.00000E+000	-1.99976E-001	0.00000E+000	7	...........	0
	303	30.4	-1.97059E-001	5.07000E-007	0.00000E+000	-1.96976E-001	0.00000E+000	7	...........	0
	306	30.7	-1.94016E-001	4.16308E-007	0.00000E+000	-1.93976E-001	0.00000E+000	7	...........	0
	309	31	-1.91033E-001	6.46372E-007	0.00000E+000	-1.90976E-001	0.00000E+000	7	...........	0
	312	31.3	-1.88010E-001	4.17976E-007	0.00000E+000	-1.87976E-001	0.00000E+000	7	...........	0
	315	31.6	-1.85057E-001	7.35730E-007	0.00000E+000	-1.84976E-001	0.00000E+000	7	...........	0
	318	31.9	-1.82054E-001	5.44010E-007	0.00000E+000	-1.81975E-001	0.00000E+000	7	...........	0
	321	32.2	-1.79051E-001	5.21004E-007	0.00000E+000	-1.78975E-001	0.00000E+000	7	...........	0
	324	32.5	-1.76058E-001	4.43316E-007	0.00000E+000	-1.75975E-001	0.00000E+000	7	...........	0
	327	32.8	-1.73045E-001	3.67962E-007	0.00000E+000	-1.72975E-001	0.00000E+000	7	...........	0
	330	33.1	-1.70042E-001	5.86022E-007	0.00000E+000	-1.69975E-001	0.00000E+000	7	...........	0
	333	33.4	-1.67099E-001	5.23004E-007	0.00000E+000	-1.67025E-001	0.00000E+000	7	...........	0
	336	33.7	-1.64116E-001	4.75991E-007	0.00000E+000	-1.64025E-001	0.00000E+000	7	...........	0
	339	34	-1.61123E-001	6.56374E-007	0.00000E+000	-1.61025E-001	0.00000E+000	7	...........	0
	342	34.3	-1.58130E-001	5.13335E-007	0.00000E+000	-1.58025E-001	0.00000E+000	7	...........	0
	345	34.6	-1.55077E-001	6.05694E-007	0.00000E+000	-1.55024E-001	0.00000E+000	7	...........	0
	348	34.9	-1.52124E-001	5.23338E-007	0.00000E+000	-1.52024E-001	0.00000E+000	7	...........	0
	351	35.2	-1.49071E-001	5.40009E-007	0.00000E+000	-1.49024E-001	0.00000E+000	7	...........	0
	354	35.5	-1.46098E-001	4.56319E-007	0.00000E+000	-1.46024E-001	0.00000E+000	7	...........	0
	357	35.8	-1.43115E-001	4.11640E-007	0.00000E+000	-1.43024E-001	0.00000E+000	7	...........	0
	360	36.1	-1.40102E-001	6.14363E-007	0.00000E+000	-1.40024E-001	0.00000E+000	7	...........	0
	363	36.4	-1.37099E-001	5.52012E-007	0.00000E+000	-1.37024E-001	0.00000E+000	7	...........	0
	366	36.7	-1.34116E-001	5.97358E-007	0.00000E+000	-1.34024E-001	0.00000E+000	7	...........	0
	369	37	-1.31133E-001	5.40343E-007	0.00000E+000	-1.31023E-001	0.00000E+000	7	...........	0
	372	37.3	-1.28070E-001	5.51679E-007	0.00000E+000	-1.28023E-001	0.00000E+000	7	...........	0
	375	37.6	-1.25127E-001	6.51040E-007	0.00000E+000	-1.25023E-001	0.00000E+000	7	...........	0
	378	37.9	-1.22134E-001	6.01359E-007	0.00000E+000	-1.22023E-001	0.00000E+000	7	...........	0
	381	38.2	-1.19141E-001	6.55041E-007	0.00000E+000	-1.19023E-001	0.00000E+000	7	...........	0
	384	38.5	-1.16118E-001	9.03776E-007	0.00000E+000	-1.16023E-001	0.00000E+000	7	...........	0
	387	38.8	-1.13135E-001	6.88050E-007	0.00000E+000	-1.13023E-001	0.00000E+000	7	...........	0
	390	39.1	-1.10172E-001	8.90772E-007	0.00000E+000	-1.10023E-001	0.00000E+000	7	...........	0
	393	39.4	-1.07119E-001	6.82048E-007	0.00000E+000	-1.07022E-001	0.00000E+000	7	...........	0
	396	39.7	-1.04116E-001	6.96719E-007	0.00000E+000	-1.04022E-001	0.00000E+000	7	...........	0
	399	40	-1.01153E-001	1.02781E-006	0.00000E+000	-1.01022E-001	0.00000E+000	7	...........	0
	402	40.3	-9.81200E-002	6.63710E-007	0.00000E+000	-9.80221E-002	0.00000E+000	7	...........	0
	405	40.6	-9.51070E-002	8.28422E-007	0.00000E+000	-9.50219E-002	0.00000E+000	7	...........	0
	408	40.9	-9.20940E-002	5.93357E-007	0.00000E+000	-9.20218E-002	0.00000E+000	7	...........	0
	411	41.2	-8.91111E-002	7.14724E-007	0.00000E+000	-8.90217E-002	0.00000E+000	7	...........	0
	414	41.5	-8.61281E-002	1.01181E-006	0.00000E+000	-8.60216E-002	0.00000E+000	7	...........	0
	417	41.8	-8.31251E-002	7.52734E-007	0.00000E+000	-8.30214E-002	0.00000E+000	7	...........	0
	420	42.1	-8.01421E-002	9.30783E-007	0.00000E+000	-8.00213E-002	0.00000E+000	7	...........	0
	423	42.4	-7.70991E-002	6.87049E-007	0.00000E+000	-7.70212E-002	0.00000E+000	7	...........	0
	426	42.7	-7.41061E-002	7.12056E-007	0.00000E+000	-7.40211E-002	0.00000E+000	7	...........	0
	429	43	-7.10831E-002	1.03181E-006	0.00000E+000	-7.10210E-002	0.00000E+000	7	...........	0
	432	43.3	-6.81102E-002	7.89744E-007	0.00000E+000	-6.80208E-002	0.00000E+000	7	...........	0
	435	43.6	-6.50671E-002	1.08683E-006	0.00000E+000	-6.50207E-002	0.00000E+000	7	...........	0
	438	43.9	-6.21142E-002	6.33368E-007	0.00000E+000	-6.20206E-002	0.00000E+000	7	...........	0
	441	44.2	-5.90912E-002	6.17697E-007	0.00000E+000	-5.90205E-002	0.00000E+000	7	...........	0
	444	44.5	-5.60582E-002	7.25393E-007	0.00000E+000	-5.60203E-002	0.00000E+000	7	...........	0
	447	44.8	-5.31153E-002	6.52040E-007	0.00000E+000	-5.30202E-002	0.00000E+000	7	...........	0
	450	45.1	-5.00922E-002	7.56402E-007	0.00000E+000	-5.00201E-002	0.00000E+000	7	...........	0
	453	45.4	-4.71093E-002	9.59791E-007	0.00000E+000	-4.70200E-002	0.00000E+000	7	...........	0
	456	45.7	-4.40863E-002	6.63376E-007	0.00000E+000	-4.40199E-002	0.00000E+000	7	...........	0
	459	46	-4.11233E-002	5.94357E-007	0.00000E+000	-4.10197E-002	0.00000E+000	7	...........	0
	462	46.3	-3.80603E-002	9.50122E-007	0.00000E+000	-3.80196E-002	0.00000E+000	7	...........	0
	465	46.6	-3.51273E-002	6.63710E-007	0.00000E+000	-3.50195E-002	0.00000E+000	7	...........	0
	468	46.9	-3.21244E-002	7.05054E-007	0.00000E+000	-3.20194E-002	0.00000E+000	7	...........	0
	471	47.2	-2.90713E-002	8.61097E-007	0.00000E+000	-2.90192E-002	0.00000E+000	7	...........	0
	474	47.5	-2.61584E-002	7.54068E-007	0.00000E+000	-2.60191E-002	0.00000E+000	7	...........	0
	477	47.8	-2.31362E-002	8.10083E-007	0.00000E+000	-2.30190E-002	0.00000E+000	7	...........	0
	480	48.1	-2.01132E-002	8.53095E-007	0.00000E+000	-2.00189E-002	0.00000E+000	7	...........	0
	483	48.4	-1.70922E-002	6.77714E-007	0.00000E+000	-1.70187E-002	0.00000E+000	7	...........	0
	486	48.7	-1.40822E-002	9.15446E-007	0.00000E+000	-1.40186E-002	0.00000E+000	7	...........	0
	489	49	-1.11042E-002	9.07110E-007	0.00000E+000	-1.10185E-002	0.00000E+000	7	...........	0
	492	49.3	-8.11623E-003	8.65432E-007	0.00000E+000	-8.01838E-003	0.00000E+000	7	...........	0
	495	49.6	-5.13226E-003	9.56457E-007	0.00000E+000	-5.01826E-003	0.00000E+000	7	...........	0
	498	49.9	-2.10724E-003	1.08549E-006	0.00000E+000	-2.01814E-003	0.00000E+000	7	...........	0
	501	50.2	8.86735E-004	9.95134E-007	0.00000E+000	9.81987E-004	0.00000E+000	7	...........	0
	504	50.5	3.92276E-003	1.06815E-006	0.00000E+000	3.98211E-003	0.00000E+000	7	...........	0
	507	50.8	6.89171E-003	1.00214E-006	0.00000E+000	6.98223E-003	0.00000E+000	7	...........	0
	510	51.1	9.89270E-003	1.08383E-006	0.00000E+000	9.98235E-003	0.00000E+000	7	...........	0
	513	51.4	1.28997E-002	8.95773E-007	0.00000E+000	1.29825E-002	0.00000E+000	7	...........	0
	516	51.7	1.59127E-002	9.46121E-007	0.00000E+000	1.59826E-002	0.00000E+000	7	...........	0
	519	52	1.88957E-002	9.59458E-007	0.00000E+000	1.89827E-002	0.00000E+000	7	...........	0
	522	52.3	2.18876E-002	1.16985E-006	0.00000E+000	2.19828E-002	0.00000E+000	7	...........	0
	525	52.6	2.48826E-002	1.02948E-006	0.00000E+000	2.49830E-002	0.00000E+000	7	...........	0
	528	52.9	2.79054E-002	9.03442E-007	0.00000E+000	2.79831E-002	0.00000E+000	7	...........	0
	531	53.2	3.08884E-002	9.55790E-007	0.00000E+000	3.09832E-002	0.00000E+000	7	...........	0
	534	53.5	3.38913E-002	9.80463E-007	0.00000E+000	3.39833E-002	0.00000E+000	7	...........	0
	537	53.8	3.68943E-002	9.63792E-007	0.00000E+000	3.69835E-002	0.00000E+000	7	...........	0
	540	54.1	3.98973E-002	9.88132E-007	0.00000E+000	3.99836E-002	0.00000E+000	7	...........	0
	543	54.4	4.29203E-002	9.83131E-007	0.00000E+000	4.29837E-002	0.00000E+000	7	...........	0
	546	54.7	4.58833E-002	1.16952E-006	0.00000E+000	4.59838E-002	0.00000E+000	7	...........	0
	549	55	4.88863E-002	1.03581E-006	0.00000E+000	4.89840E-002	0.00000E+000	7	...........	0
	552	55.3	5.18893E-002	1.07682E-006	0.00000E+000	5.19841E-002	0.00000E+000	7	...........	0
	555	55.6	5.48722E-002	1.12317E-006	0.00000E+000	5.49842E-002	0.00000E+000	7	...........	0
	558	55.9	5.78552E-002	1.22686E-006	0.00000E+000	5.79843E-002	0.00000E+000	7	...........	0
	561	56.2	6.08582E-002	1.08649E-006	0.00000E+000	6.09844E-002	0.00000E+000	7	...........	0
	564	56.5	6.38712E-002	1.00380E-006	0.00000E+000	6.39846E-002	0.00000E+000	7	...........	0
	567	56.8	6.68642E-002	1.21353E-006	0.00000E+000	6.69847E-002	0.00000E+000	7	...........	0
	570	57.1	6.98872E-002	1.22086E-006	0.00000E+000	6.99848E-002	0.00000E+000	7	...........	0
	573	57.4	7.28501E-002	1.22053E-006	0.00000E+000	7.29849E-002	0.00000E+000	7	...........	0
	576	57.7	7.58932E-002	1.18185E-006	0.00000E+000	7.59851E-002	0.00000E+000	7	...........	0
	579	58	7.88761E-002	1.32623E-006	0.00000E+000	7.89852E-002	0.00000E+000	7	...........	0
	582	58.3	8.19192E-002	1.33389E-006	0.00000E+000	8.19853E-002	0.00000E+000	7	...........	0
	585	58.6	8.48921E-002	1.31589E-006	0.00000E+000	8.49854E-002	0.00000E+000	7	...........	0
	588	58.9	8.78851E-002	1.25454E-006	0.00000E+000	8.79855E-002	0.00000E+000	7	...........	0
	591	59.2	9.09782E-002	1.39224E-006	0.00000E+000	9.09857E-002	0.00000E+000	7	...........	0
	594	59.5	9.39011E-002	1.55662E-006	0.00000E+000	9.39858E-002	0.00000E+000	7	...........	0
	597	59.8	9.69041E-002	1.39291E-006	0.00000E+000	9.69859E-002	0.00000E+000	7	...........	0
	600	60.1	9.98770E-002	1.17185E-006	0.00000E+000	9.99860E-002	0.00000E+000	7	...........	0
	603	60.4	1.02880E-001	1.20819E-006	0.00000E+000	1.02986E-001	0.00000E+000	7	...........	0
	606	60.7	1.05913E-001	1.40491E-006	0.00000E+000	1.05986E-001	0.00000E+000	7	...........	0
	609	61	1.08886E-001	1.29488E-006	0.00000E+000	1.08986E-001	0.00000E+000	7	...........	0
	612	61.3	1.11879E-001	1.48994E-006	0.00000E+000	1.11987E-001	0.00000E+000	7	...........	0
	615	61.6	1.14902E-001	1.47393E-006	0.00000E+000	1.14987E-001	0.00000E+000	7	...........	0
	618	61.9	1.17855E-001	1.47627E-006	0.00000E+000	1.17987E-001	0.00000E+000	7	...........	0
	621	62.2	1.20928E-001	1.42725E-006	0.00000E+000	1.20987E-001	0.00000E+000	7	...........	0
	624	62.5	1.23861E-001	1.49927E-006	0.00000E+000	1.23987E-001	0.00000E+000	7	...........	0
	627	62.8	1.26884E-001	1.49227E-006	0.00000E+000	1.26987E-001	0.00000E+000	7	...........	0
	630	63.1	1.29907E-001	1.58963E-006	0.00000E+000	1.29987E-001	0.00000E+000	7	...........	0
	633	63.4	1.32890E-001	1.59763E-006	0.00000E+000	1.32987E-001	0.00000E+000	7	...........	0
	636	63.7	1.35863E-001	1.24254E-006	0.00000E+000	1.35988E-001	0.00000E+000	7	...........	0
	639	64	1.38876E-001	1.57563E-006	0.00000E+000	1.38988E-001	0.00000E+000	7	...........	0
	642	64.3	1.41909E-001	1.39824E-006	0.00000E+000	1.41988E-001	0.00000E+000	7	...........	0
	645	64.6	1.44882E-001	1.66532E-006	0.00000E+000	1.44988E-001	0.00000E+000	7	...........	0
	648	64.9	1.47925E-001	1.71400E-006	0.00000E+000	1.47988E-001	0.00000E+000	7	...........	0
	651	65.2	1.50888E-001	1.56562E-006	0.00000E+000	1.50988E-001	0.00000E+000	7	...........	0
	654	65.5	1.53871E-001	1.62998E-006	0.00000E+000	1.53988E-001	0.00000E+000	7	...........	0
	657	65.8	1.56904E-001	1.68632E-006	0.00000E+000	1.56988E-001	0.00000E+000	7	...........	0
	660	66.1	1.59927E-001	1.68099E-006	0.00000E+000	1.59988E-001	0.00000E+000	7	...........	0
	663	66.4	1.62900E-001	1.70666E-006	0.00000E+000	1.62989E-001	0.00000E+000	7	...........	0
	666	66.7	1.65893E-001	1.61164E-006	0.00000E+000	1.65989E-001	0.00000E+000	7	...........	0
	669	67	1.68896E-001	1.66265E-006	0.00000E+000	1.68989E-001	0.00000E+000	7	...........	0
	672	67.3	1.71909E-001	1.61630E-006	0.00000E+000	1.71989E-001	0.00000E+000	7	...........	0
	675	67.6	1.74912E-001	1.55662E-006	0.00000E+000	1.74989E-001	0.00000E+000	7	...........	0
	678	67.9	1.77885E-001	1.71467E-006	0.00000E+000	1.77989E-001	0.00000E+000	7	...........	0
	681	68.2	1.80948E-001	1.75001E-006	0.00000E+000	1.80989E-001	0.00000E+000	7	...........	0
	684	68.5	1.83891E-001	1.72500E-006	0.00000E+000	1.83989E-001	0.00000E+000	7	...........	0
	687	68.8	1.86904E-001	1.72333E-006	0.00000E+000	1.86990E-001	0.00000E+000	7	...........	0
	690	69.1	1.89897E-001	1.63964E-006	0.00000E+000	1.89990E-001	0.00000E+000	7	...........	0
	693	69.4	1.92910E-001	1.74667E-006	0.00000E+000	1.92990E-001	0.00000E+000	7	...........	0
	696	69.7	1.95893E-001	1.81103E-006	0.00000E+000	1.95990E-001	0.00000E+000	7	...........	0
	699	70	1.98926E-001	1.87304E-006	0.00000E+000	1.98990E-001	0.00000E+000	7	...........	0
	702	70.3	2.01899E-001	1.82636E-006	0.00000E+000	2.01990E-001	0.00000E+000	7	...........	0
	705	70.6	2.04882E-001	1.66465E-006	0.00000E+000	2.04990E-001	0.00000E+000	7	...........	0
	708	70.9	2.07905E-001	1.88204E-006	0.00000E+000	2.07990E-001	0.00000E+000	7	...........	0
	711	71.2	2.10908E-001	1.82003E-006	0.00000E+000	2.10991E-001	0.00000E+000	7	...........	0
	714	71.5	2.13860E-001	1.91039E-006	0.00000E+000	2.13991E-001	0.00000E+000	7	...........	0
	717	71.8	2.16863E-001	1.77835E-006	0.00000E+000	2.16991E-001	0.00000E+000	7	...........	0
	720	72.1	2.19866E-001	1.79202E-006	0.00000E+000	2.19991E-001	0.00000E+000	7	...........	0
	723	72.4	2.22879E-001	1.84737E-006	0.00000E+000	2.22991E-001	0.00000E+000	7	...........	0
	726	72.7	2.25872E-001	1.77635E-006	0.00000E+000	2.25991E-001	0.00000E+000	7	...........	0
	729	73	2.28865E-001	2.05109E-006	0.00000E+000	2.28991E-001	0.00000E+000	7	...........	0
	732	73.3	2.31848E-001	1.81769E-006	0.00000E+000	2.31991E-001	0.00000E+000	7	...........	0
	735	73.6	2.34851E-001	2.09477E-006	0.00000E+000	2.34992E-001	0.00000E+000	7	...........	0
	738	73.9	2.37914E-001	1.82269E-006	0.00000E+000	2.37992E-001	0.00000E+000	7	...........	0
	741	74.2	2.40837E-001	1.83203E-006	0.00000E+000	2.40992E-001	0.00000E+000	7	...........	0
	744	74.5	2.43830E-001	1.91239E-006	0.00000E+000	2.43992E-001	0.00000E+000	7	...........	0
	747	74.8	2.46893E-001	1.94139E-006	0.00000E+000	2.46992E-001	0.00000E+000	7	...........	0
	750	75.1	2.49886E-001	1.98774E-006	0.00000E+000	2.49992E-001	0.00000E+000	7	...........	0
	753	75.4	2.52869E-001	1.98807E-006	0.00000E+000	2.52992E-001	0.00000E+000	7	...........	0
	756	75.7	2.55842E-001	1.99441E-006	0.00000E+000	2.55992E-001	0.00000E+000	7	...........	0
	759	76	2.58865E-001	1.97240E-006	0.00000E+000	2.58993E-001	0.00000E+000	7	...........	0
	762	76.3	2.61858E-001	2.07977E-006	0.00000E+000	2.61993E-001	0.00000E+000	7	...........	0
	765	76.6	2.64861E-001	2.09710E-006	0.00000E+000	2.64993E-001	0.00000E+000	7	...........	0
	768	76.9	2.68055E-001	2.12344E-006	0.00000E+000	2.67993E-001	0.00000E+000	7	...........	0
	771	77.2	2.71158E-001	2.05309E-006	0.00000E+000	2.70993E-001	0.00000E+000	7	...........	0
	774	77.5	2.74061E-001	2.04176E-006	0.00000E+000	2.73993E-001	0.00000E+000	7	...........	0
	777	77.8	2.77064E-001	2.11411E-006	0.00000E+000	2.76993E-001	0.00000E+000	7	...........	0
	780	78.1	2.79967E-001	2.09077E-006	0.00000E+000	2.79993E-001	0.00000E+000	7	...........	0
	783	78.4	2.83170E-001	2.14312E-006	0.00000E+000	2.82993E-001	0.00000E+000	7	...........	0
	786	78.7	2.86073E-001	2.09177E-006	0.00000E+000	2.85994E-001	0.00000E+000	7	...........	0
	789	79	2.89076E-001	2.05743E-006	0.00000E+000	2.88994E-001	0.00000E+000	7	...........	0
	792	79.3	2.92079E-001	2.14745E-006	0.00000E+000	2.91994E-001	0.00000E+000	7	...........	0
	795	79.6	2.95182E-001	1.95940E-006	0.00000E+000	2.94994E-001	0.00000E+000	7	...........	0
	798	79.9	2.98085E-001	2.02342E-006	0.00000E+000	2.97994E-001	0.00000E+000	7	...........	0
	801	80.2	3.00988E-001	2.36484E-006	0.00000E+000	3.00994E-001	0.00000E+000	7	...........	0
	804	80.5	3.03991E-001	2.13745E-006	0.00000E+000	3.03994E-001	0.00000E+000	7	...........	0
	807	80.8	3.07094E-001	2.14778E-006	0.00000E+000	3.06994E-001	0.00000E+000	7	...........	0
	810	81.1	3.09997E-001	2.05309E-006	0.00000E+000	3.09995E-001	0.00000E+000	7	...........	0
	813	81.4	3.13100E-001	2.22847E-006	0.00000E+000	3.12995E-001	0.00000E+000	7	...........	0
	816	81.7	3.16103E-001	2.28349E-006	0.00000E+000	3.15995E-001	0.00000E+000	7	...........	0
	819	82	3.19006E-001	2.24581E-006	0.00000E+000	3.18995E-001	0.00000E+000	7	...........	0
	822	82.3	3.22109E-001	2.14945E-006	0.00000E+000	3.21995E-001	0.00000E+000	7	...........	0
	825	82.6	3.25012E-001	2.32883E-006	0.00000E+000	3.24995E-001	0.00000E+000	7	...........	0
	828	82.9	3.28015E-001	2.22414E-006	0.00000E+000	3.27995E-001	0.00000E+000	7	...........	0
	831	83.2	3.31018E-001	2.32783E-006	0.00000E+000	3.30995E-001	0.00000E+000	7	...........	0
	834	83.5	3.34221E-001	2.36718E-006	0.00000E+000	3.33996E-001	0.00000E+000	7	...........	0
	837	83.8	3.37124E-001	2.34117E-006	0.00000E+000	3.36996E-001	0.00000E+000	7	...........	0
	840	84.1	3.40027E-001	2.31050E-006	0.00000E+000	3.39996E-001	0.00000E+000	7	...........	0
	843	84.4	3.43030E-001	2.25915E-006	0.00000E+000	3.42996E-001	0.00000E+000	7	...........	0
	846	84.7	3.46033E-001	2.33884E-006	0.00000E+000	3.45996E-001	0.00000E+000	7	...........	0
	849	85	3.49136E-001	2.26015E-006	0.00000E+000	3.48996E-001	0.00000E+000	7	...........	0
	852	85.3	3.52139E-001	2.29049E-006	0.00000E+000	3.51996E-001	0.00000E+000	7	...........	0
	855	85.6	3.55142E-001	2.35284E-006	0.00000E+000	3.54996E-001	0.00000E+000	7	...........	0
	858	85.9	3.58044E-001	2.36351E-006	0.00000E+000	3.57997E-001	0.00000E+000	7	...........	0
	861	86.2	3.61047E-001	2.31183E-006	0.00000E+000	3.60997E-001	0.00000E+000	7	...........	0
	864	86.5	3.64151E-001	2.34551E-006	0.00000E+000	3.63997E-001	0.00000E+000	7	...........	0
	867	86.8	3.67154E-001	2.41786E-006	0.00000E+000	3.66997E-001	0.00000E+000	7	...........	0
	870	87.1	3.70157E-001	2.29082E-006	0.00000E+000	3.69997E-001	0.00000E+000	7	...........	0
	873	87.4	3.73160E-001	2.34817E-006	0.00000E+000	3.72997E-001	0.00000E+000	7	...........	0
	876	87.7	3.76162E-001	2.45287E-006	0.00000E+000	3.75997E-001	0.00000E+000	7	...........	0
	879	88	3.79166E-001	2.44920E-006	0.00000E+000	3.78997E-001	0.00000E+000	7	...........	0
	882	88.3	3.82169E-001	2.39552E-006	0.00000E+000	3.81998E-001	0.00000E+000	7	...........	0
	885	88.6	3.85171E-001	2.48888E-006	0.00000E+000	3.84998E-001	0.00000E+000	7	...........	0
	888	88.9	3.88174E-001	2.44853E-006	0.00000E+000	3.87998E-001	0.00000E+000	7	...........	0
	891	89.2	3.91077E-001	2.51989E-006	0.00000E+000	3.90998E-001	0.00000E+000	7	...........	0
	894	89.5	3.94080E-001	2.11878E-006	0.00000E+000	3.93998E-001	0.00000E+000	7	...........	0
	897	89.8	3.97183E-001	2.50088E-006	0.00000E+000	3.96998E-001	0.00000E+000	7	...........	0
	900	90.1	4.00186E-001	2.64625E-006	0.00000E+000	3.99998E-001	0.00000E+000	7	...........	0
	903	90.4	4.03089E-001	2.62125E-006	0.00000E+000	4.02998E-001	0.00000E+000	7	...........	0
	906	90.7	4.06192E-001	2.64192E-006	0.00000E+000	4.05999E-001	0.00000E+000	7	...........	0
	909	91	4.09095E-001	2.68660E-006	0.00000E+000	4.08999E-001	0.00000E+000	7	...........	0
	912	91.3	4.12198E-001	2.70527E-006	0.00000E+000	4.11999E-001	0.00000E+000	7	...........	0
	915	91.6	4.15301E-001	2.65626E-006	0.00000E+000	4.14999E-001	0.00000E+000	7	...........	0
	918	91.9	4.18204E-001	2.69527E-006	0.00000E+000	4.17999E-001	0.00000E+000	7	...........	0
	921	92.2	4.21107E-001	2.73428E-006	0.00000E+000	4.20999E-001	0.00000E+000	7	...........	0
	924	92.5	4.24110E-001	2.77996E-006	0.00000E+000	4.23999E-001	0.00000E+000	7	...........	0
	927	92.8	4.27213E-001	2.74762E-006	0.00000E+000	4.26999E-001	0.00000E+000	7	...........	0
	930	93.1	4.30216E-001	2.76862E-006	0.00000E+000	4.30000E-001	0.00000E+000	7	...........	0
	933	93.4	4.33119E-001	2.83931E-006	0.00000E+000	4.33000E-001	0.00000E+000	7	...........	0
	936	93.7	4.36222E-001	2.79129E-006	0.00000E+000	4.36000E-001	0.00000E+000	7	...........	0
	939	94	4.39225E-001	2.88632E-006	0.00000E+000	4.39000E-001	0.00000E+000	7	...........	0
	942	94.3	4.42128E-001	2.94834E-006	0.00000E+000	4.42000E-001	0.00000E+000	7	...........	0
	945	94.6	4.45231E-001	2.95634E-006	0.00000E+000	4.45000E-001	0.00000E+000	7	...........	0
	948	94.9	4.48134E-001	2.93900E-006	0.00000E+000	4.48000E-001	0.00000E+000	7	...........	0
	951	95.2	4.51237E-001	2.99235E-006	0.00000E+000	4.51000E-001	0.00000E+000	7	...........	0
	954	95.5	4.54140E-001	3.02236E-006	0.00000E+000	4.54001E-001	0.00000E+000	7	...........	0
	957	95.8	4.57243E-001	3.00669E-006	0.00000E+000	4.57001E-001	0.00000E+000	7	...........	0
	960	96.1	4.60246E-001	3.05370E-006	0.00000E+000	4.60001E-001	0.00000E+000	7	...........	0
	963	96.4	4.63249E-001	3.01869E-006	0.00000E+000	4.63001E-001	0.00000E+000	7	...........	0
	966	96.7	4.66252E-001	3.07404E-006	0.00000E+000	4.66001E-001	0.00000E+000	7	...........	0
	969	97	4.69155E-001	3.08437E-006	0.00000E+000	4.69001E-001	0.00000E+000	7	...........	0
	972	97.3	4.72158E-001	3.14139E-006	0.00000E+000	4.72001E-001	0.00000E+000	7	...........	0
	975	97.6	4.75161E-001	3.13172E-006	0.00000E+000	4.75001E-001	0.00000E+000	7	...........	0
	978	97.9	4.78164E-001	3.08404E-006	0.00000E+000	4.78001E-001	0.00000E+000	7	...........	0
	981	98.2	4.81067E-001	3.10338E-006	0.00000E+000	4.81002E-001	0.00000E+000	7	...........	0
	984	98.5	4.84070E-001	3.17440E-006	0.00000E+000	4.84002E-001	0.00000E+000	7	...........	0
	987	98.8	4.87173E-001	3.15406E-006	0.00000E+000	4.87002E-001	0.00000E+000	7	...........	0
	990	99.1	4.90176E-001	3.23208E-006	0.00000E+000	4.90002E-001	0.00000E+000	7	...........	0
	993	99.4	4.93179E-001	3.16040E-006	0.00000E+000	4.93002E-001	0.00000E+000	7	...........	0
	996	99.7	4.96182E-001	3.23375E-006	0.00000E+000	4.96002E-001	0.00000E+000	7	...........	0
	999	100	4.99085E-001	3.24575E-006	0.00000E+000	4.99002E-001	0.00000E+000	7	...........	0
	1002	100.3	5.02188E-001	3.26843E-006	0.00000E+000	5.02002E-001	0.00000E+000	7	...........	0
	1005	100.6	5.05191E-001	3.28610E-006	0.00000E+000	5.05003E-001	0.00000E+000	7	...........	0
	1008	100.9	5.08094E-001	3.30277E-006	0.00000E+000	5.08003E-001	0.00000E+000	7	...........	0
	1011	101.2	5.11197E-001	3.31911E-006	0.00000E+000	5.11003E-001	0.00000E+000	7	...........	0
	1014	101.5	5.14200E-001	3.32311E-006	0.00000E+000	5.14003E-001	0.00000E+000	7	...........	0
	1017	101.8	5.17203E-001	3.32477E-006	0.00000E+000	5.17003E-001	0.00000E+000	7	...........	0
	1020	102.1	5.20106E-001	3.38279E-006	0.00000E+000	5.20003E-001	0.00000E+000	7	...........	0
	1023	102.4	5.23209E-001	3.37846E-006	0.00000E+000	5.23003E-001	0.00000E+000	7	...........	0
	1026	102.7	5.26112E-001	3.33611E-006	0.00000E+000	5.26003E-001	0.00000E+000	7	...........	0
	1029	103	5.29215E-001	3.31577E-006	0.00000E+000	5.29004E-001	0.00000E+000	7	...........	0
	1032	103.3	5.32218E-001	3.34511E-006	0.00000E+000	5.32004E-001	0.00000E+000	7	...........	0
	1035	103.6	5.35121E-001	3.42847E-006	0.00000E+000	5.35004E-001	0.00000E+000	7	...........	0
	1038	103.9	5.38224E-001	3.40013E-006	0.00000E+000	5.38004E-001	0.00000E+000	7	...........	0
	1041	104.2	5.41127E-001	3.40980E-006	0.00000E+000	5.41004E-001	0.00000E+000	7	...........	0
	1044	104.5	5.44230E-001	3.44947E-006	0.00000E+000	5.44004E-001	0.00000E+000	7	...........	0
	1047	104.8	5.47233E-001	3.43347E-006	0.00000E+000	5.47004E-001	0.00000E+000	7	...........	0
	1050	105.1	5.50136E-001	3.43314E-006	0.00000E+000	5.50004E-001	0.00000E+000	7	...........	0
	1053	105.4	5.53239E-001	3.39946E-006	0.00000E+000	5.53005E-001	0.00000E+000	7	...........	0
	1056	105.7	5.56242E-001	3.48849E-006	0.00000E+000	5.56005E-001	0.00000E+000	7	...........	0
	1059	106	5.59245E-001	3.44081E-006	0.00000E+000	5.59005E-001	0.00000E+000	7	...........	0
	1062	106.3	5.62148E-001	3.40846E-006	0.00000E+000	5.62005E-001	0.00000E+000	7	...........	0
	1065	106.6	5.65251E-001	3.49949E-006	0.00000E+000	5.65005E-001	0.00000E+000	7	...........	0
	1068	106.9	5.68154E-001	3.48682E-006	0.00000E+000	5.68005E-001	0.00000E+000	7	...........	0
	1071	107.2	5.71257E-001	3.49149E-006	0.00000E+000	5.71005E-001	0.00000E+000	7	...........	0
	1074	107.5	5.74160E-001	3.49849E-006	0.00000E+000	5.74005E-001	0.00000E+000	7	...........	0
	1077	107.8	5.77263E-001	3.51449E-006	0.00000E+000	5.77006E-001	0.00000E+000	7	...........	0
	1080	108.1	5.80266E-001	3.53316E-006	0.00000E+000	5.80006E-001	0.00000E+000	7	...........	0
	1083	108.4	5.83169E-001	3.57318E-006	0.00000E+000	5.83006E-001	0.00000E+000	7	...........	0
	1086	108.7	5.86172E-001	3.59285E-006	0.00000E+000	5.86006E-001	0.00000E+000	7	...........	0
	1089	109	5.89175E-001	3.61019E-006	0.00000E+000	5.89006E-001	0.00000E+000	7	...........	0
	1092	109.3	5.92278E-001	3.64086E-006	0.00000E+000	5.92006E-001	0.00000E+000	7	...........	0
	1095	109.6	5.95181E-001	3.69688E-006	0.00000E+000	5.95006E-001	0.00000E+000	7	...........	0
	1098	109.9	5.98184E-001	3.71188E-006	0.00000E+000	5.98006E-001	0.00000E+000	7	...........	0
	1100	110.1	6.00186E-001	3.73789E-006	0.00000E+000	6.00006E-001	0.00000E+000	7	...........	0