File: LSV ZFO/ZFO_h200_light2.DTA
EXPLAIN
TAG	LSV
TITLE	LABEL	Linear Sweep Voltammetry	Test &Identifier
DATE	LABEL	7/5/2024	Date
TIME	LABEL	16:27:12	Time
NOTES	NOTES	1	&Notes...

PSTAT	PSTAT	L3FNano	Potentiostat
VINIT	POTEN	-5.00000E-001	F	&Initial E (V)
VFINAL	POTEN	6.00000E-001	F	&Final E (V)
SCANRATE	QUANT	9.99998E+000	&Scan Rate (mV/s)
STEPSIZE	QUANT	1.00000E+000	St&ep Size (mV)
IMODE	SELECTOR	0	I/E Range &Mode
IRANGE	QUANT	1.00000E+001	&Max Current (mA)
AREA	QUANT	1.00000E+000	Electrode &Area (cm^2)
ELECTRODETYPE	SELECTOR	0	Electrode Type
STRIPPING	TOGGLE	F	Used for Stripping
POLARITY	TOGGLE	F	Signal Polarity
CONDIT	TWOPARAM	F	1.50000E+001	0.00000E+000	Conditionin&g	Time(s)	E(V)
DELAY	TWOPARAM	F	3.00000E+001	0.00000E+000	Init. De&lay	Time(s)	Stab.(mV/s)
EQDELAY	QUANT	5.00000E+000	Equil. &Time (s)
IRCOMP	SELECTOR	0	IRCom&p
PFCOR	QUANT	5.00000E+001	PF Corr. (ohm)
SAMPLINGMODE	SELECTOR	0	Sampling &Mode
EOC	QUANT	0	Open Circuit (V)
PSTATMODEL	IQUANT	48	Pstat Model
PSTATSECTION	LABEL	IFC1000-07082	Pstat Section
PSTATSERIALNO	LABEL	07082	Pstat Serial Number
CTRLMODE	IQUANT	1	Control Mode
IESTAB	IQUANT	2	I/E Stability
CASPEED	IQUANT	2	Control Amp Speed
CONVENTION	IQUANT	1	Current Convention
ICHRANGE	IQUANT	2	Ich Range
ICHRANGEMODE	TOGGLE	F	Ich Auto Range
ICHOFFSETENABLE	TOGGLE	F	Ich Offset Enable
ICHOFFSET	QUANT	0	Ich Offset (V)
ICHFILTER	IQUANT	3	Ich Filter
VCHRANGE	IQUANT	2	Vch Range
VCHRANGEMODE	TOGGLE	T	Vch Auto Range
VCHOFFSETENABLE	TOGGLE	F	Vch Offset Enable
VCHOFFSET	QUANT	0	Vch Offset (V)
VCHFILTER	IQUANT	3	Vch Filter
IERANGELOWERLIMIT	IQUANT	4	I/E Range Lower Limit
IERANGEMODE	TOGGLE	T	I/E AutoRange
IERANGE	IQUANT	11	I/E Range
ACHSELECT	IQUANT	4	Ach Select
CABLEID	IQUANT	14	Cable ID
DCCALDATE	LABEL	7/3/2024	DC Calibration Date
ACCALDATE	LABEL	7/3/2024	AC Calibration Date
FRAMEWORKVERSION	QUANT	6.24	Framework Version
INSTRUMENTVERSION	LABEL	3.28	Instrument Version
CURVE	TABLE	1101
	Pt	T	Vf	Im	Vu	Sig	Ach	IERange	Over	Cycle
	#	s	V vs. Ref.	A	V	V	V	#	bits	#
	0	0.1	-4.99909E-001	-2.24315E-004	0.00000E+000	-4.99988E-001	0.00000E+000	11	...........	0
	3	0.4	-4.96906E-001	-2.11299E-004	0.00000E+000	-4.96988E-001	0.00000E+000	9	...........	0
	6	0.7	-4.94004E-001	-1.95817E-004	0.00000E+000	-4.93988E-001	0.00000E+000	9	...........	0
	9	1	-4.91001E-001	-1.82899E-004	0.00000E+000	-4.90988E-001	0.00000E+000	9	...........	0
	12	1.3	-4.87998E-001	-1.71080E-004	0.00000E+000	-4.87988E-001	0.00000E+000	9	...........	0
	15	1.6	-4.84995E-001	-1.60559E-004	0.00000E+000	-4.84988E-001	0.00000E+000	9	...........	0
	18	1.9	-4.81992E-001	-1.50338E-004	0.00000E+000	-4.81988E-001	0.00000E+000	9	...........	0
	21	2.2	-4.78989E-001	-1.41282E-004	0.00000E+000	-4.78988E-001	0.00000E+000	9	...........	0
	24	2.5	-4.75986E-001	-1.32758E-004	0.00000E+000	-4.75987E-001	0.00000E+000	9	...........	0
	27	2.8	-4.72983E-001	-1.24734E-004	0.00000E+000	-4.72987E-001	0.00000E+000	9	...........	0
	30	3.1	-4.69880E-001	-1.17709E-004	0.00000E+000	-4.69987E-001	0.00000E+000	9	...........	0
	33	3.4	-4.66977E-001	-1.10617E-004	0.00000E+000	-4.66987E-001	0.00000E+000	9	...........	0
	36	3.7	-4.63874E-001	-1.04425E-004	0.00000E+000	-4.63987E-001	0.00000E+000	9	...........	0
	39	4	-4.60971E-001	-9.82986E-005	0.00000E+000	-4.60987E-001	0.00000E+000	9	...........	0
	42	4.3	-4.57968E-001	-9.25720E-005	0.00000E+000	-4.57987E-001	0.00000E+000	9	...........	0
	45	4.6	-4.54965E-001	-8.70784E-005	0.00000E+000	-4.54987E-001	0.00000E+000	9	...........	0
	48	4.9	-4.52062E-001	-8.21509E-005	0.00000E+000	-4.51987E-001	0.00000E+000	9	...........	0
	51	5.2	-4.48859E-001	-7.77168E-005	0.00000E+000	-4.48986E-001	0.00000E+000	8	...........	0
	54	5.5	-4.45956E-001	-7.32865E-005	0.00000E+000	-4.45986E-001	0.00000E+000	8	...........	0
	57	5.8	-4.43053E-001	-6.89329E-005	0.00000E+000	-4.42986E-001	0.00000E+000	8	...........	0
	60	6.1	-4.39850E-001	-6.47592E-005	0.00000E+000	-4.39986E-001	0.00000E+000	8	...........	0
	63	6.4	-4.36947E-001	-6.07956E-005	0.00000E+000	-4.36986E-001	0.00000E+000	8	...........	0
	66	6.7	-4.33944E-001	-5.73221E-005	0.00000E+000	-4.33986E-001	0.00000E+000	8	...........	0
	69	7	-4.30941E-001	-5.39985E-005	0.00000E+000	-4.30986E-001	0.00000E+000	8	...........	0
	72	7.3	-4.27838E-001	-5.06283E-005	0.00000E+000	-4.27986E-001	0.00000E+000	8	...........	0
	75	7.6	-4.24935E-001	-4.73947E-005	0.00000E+000	-4.24985E-001	0.00000E+000	8	...........	0
	78	7.9	-4.21932E-001	-4.44878E-005	0.00000E+000	-4.21985E-001	0.00000E+000	8	...........	0
	81	8.2	-4.18829E-001	-4.17943E-005	0.00000E+000	-4.18985E-001	0.00000E+000	8	...........	0
	84	8.5	-4.16026E-001	-3.90574E-005	0.00000E+000	-4.15985E-001	0.00000E+000	8	...........	0
	87	8.8	-4.12823E-001	-3.63539E-005	0.00000E+000	-4.12985E-001	0.00000E+000	8	...........	0
	90	9.1	-4.10020E-001	-3.41238E-005	0.00000E+000	-4.09985E-001	0.00000E+000	8	...........	0
	93	9.4	-4.06917E-001	-3.19003E-005	0.00000E+000	-4.06985E-001	0.00000E+000	8	...........	0
	96	9.7	-4.04014E-001	-2.97301E-005	0.00000E+000	-4.03985E-001	0.00000E+000	8	...........	0
	99	10	-4.00911E-001	-2.75967E-005	0.00000E+000	-4.00984E-001	0.00000E+000	8	...........	0
	102	10.3	-3.98008E-001	-2.54698E-005	0.00000E+000	-3.97984E-001	0.00000E+000	8	...........	0
	105	10.6	-3.94905E-001	-2.36264E-005	0.00000E+000	-3.94984E-001	0.00000E+000	8	...........	0
	108	10.9	-3.91902E-001	-2.17662E-005	0.00000E+000	-3.91984E-001	0.00000E+000	8	...........	0
	111	11.2	-3.88999E-001	-2.00795E-005	0.00000E+000	-3.88984E-001	0.00000E+000	8	...........	0
	114	11.5	-3.85996E-001	-1.82827E-005	0.00000E+000	-3.85984E-001	0.00000E+000	8	...........	0
	117	11.8	-3.82993E-001	-1.65726E-005	0.00000E+000	-3.82984E-001	0.00000E+000	8	...........	0
	120	12.1	-3.79990E-001	-1.50824E-005	0.00000E+000	-3.79984E-001	0.00000E+000	8	...........	0
	123	12.4	-3.76887E-001	-1.35390E-005	0.00000E+000	-3.76983E-001	0.00000E+000	8	...........	0
	126	12.7	-3.73884E-001	-1.22622E-005	0.00000E+000	-3.73983E-001	0.00000E+000	8	...........	0
	129	13	-3.70881E-001	-1.08555E-005	0.00000E+000	-3.70983E-001	0.00000E+000	8	...........	0
	132	13.3	-3.67978E-001	-9.53206E-006	0.00000E+000	-3.67983E-001	0.00000E+000	8	...........	0
	135	13.6	-3.64975E-001	-8.16863E-006	0.00000E+000	-3.64983E-001	0.00000E+000	8	...........	0
	138	13.9	-3.61872E-001	-6.96572E-006	0.00000E+000	-3.61983E-001	0.00000E+000	7	...........	0
	141	14.2	-3.58969E-001	-5.95511E-006	0.00000E+000	-3.58983E-001	0.00000E+000	7	...........	0
	144	14.5	-3.55866E-001	-4.68243E-006	0.00000E+000	-3.55983E-001	0.00000E+000	7	...........	0
	147	14.8	-3.52963E-001	-3.56512E-006	0.00000E+000	-3.52982E-001	0.00000E+000	7	...........	0
	150	15.1	-3.49960E-001	-2.31111E-006	0.00000E+000	-3.49982E-001	0.00000E+000	7	...........	0
	153	15.4	-3.46957E-001	-1.20980E-006	0.00000E+000	-3.46982E-001	0.00000E+000	7	...........	0
	156	15.7	-3.43954E-001	-3.31564E-007	0.00000E+000	-3.43982E-001	0.00000E+000	7	...........	0
	159	16	-3.40951E-001	5.47011E-007	0.00000E+000	-3.40982E-001	0.00000E+000	7	...........	0
	162	16.3	-3.37948E-001	1.44793E-006	0.00000E+000	-3.37982E-001	0.00000E+000	7	...........	0
	165	16.6	-3.35045E-001	2.23748E-006	0.00000E+000	-3.34982E-001	0.00000E+000	7	...........	0
	168	16.9	-3.31942E-001	3.14439E-006	0.00000E+000	-3.31982E-001	0.00000E+000	7	...........	0
	171	17.2	-3.28939E-001	3.89760E-006	0.00000E+000	-3.28982E-001	0.00000E+000	7	...........	0
	174	17.5	-3.25936E-001	4.81118E-006	0.00000E+000	-3.25981E-001	0.00000E+000	7	...........	0
	177	17.8	-3.22833E-001	5.43469E-006	0.00000E+000	-3.22981E-001	0.00000E+000	7	...........	0
	180	18.1	-3.19930E-001	6.43163E-006	0.00000E+000	-3.19981E-001	0.00000E+000	7	...........	0
	183	18.4	-3.16927E-001	6.92176E-006	0.00000E+000	-3.16981E-001	0.00000E+000	7	...........	0
	186	18.7	-3.13924E-001	7.39756E-006	0.00000E+000	-3.13981E-001	0.00000E+000	7	...........	0
	189	19	-3.11021E-001	8.21979E-006	0.00000E+000	-3.10981E-001	0.00000E+000	7	...........	0
	192	19.3	-3.07918E-001	9.24925E-006	0.00000E+000	-3.07981E-001	0.00000E+000	8	...........	0
	195	19.6	-3.04915E-001	1.00226E-005	0.00000E+000	-3.04981E-001	0.00000E+000	8	...........	0
	198	19.9	-3.02013E-001	1.11227E-005	0.00000E+000	-3.01980E-001	0.00000E+000	8	...........	0
	201	20.2	-2.98909E-001	1.19528E-005	0.00000E+000	-2.98980E-001	0.00000E+000	8	...........	0
	204	20.5	-2.95906E-001	1.22561E-005	0.00000E+000	-2.95980E-001	0.00000E+000	8	...........	0
	207	20.8	-2.92903E-001	1.29828E-005	0.00000E+000	-2.92980E-001	0.00000E+000	8	...........	0
	210	21.1	-2.89900E-001	1.36096E-005	0.00000E+000	-2.89980E-001	0.00000E+000	8	...........	0
	213	21.4	-2.86897E-001	1.41829E-005	0.00000E+000	-2.86980E-001	0.00000E+000	8	...........	0
	216	21.7	-2.83894E-001	1.48430E-005	0.00000E+000	-2.83980E-001	0.00000E+000	8	...........	0
	219	22	-2.80891E-001	1.52463E-005	0.00000E+000	-2.80980E-001	0.00000E+000	8	...........	0
	222	22.3	-2.77989E-001	1.59697E-005	0.00000E+000	-2.77979E-001	0.00000E+000	8	...........	0
	225	22.6	-2.74886E-001	1.66998E-005	0.00000E+000	-2.74979E-001	0.00000E+000	8	...........	0
	228	22.9	-2.71983E-001	1.76398E-005	0.00000E+000	-2.71979E-001	0.00000E+000	8	...........	0
	231	23.2	-2.68980E-001	1.89533E-005	0.00000E+000	-2.68979E-001	0.00000E+000	8	...........	0
	234	23.5	-2.65877E-001	1.95166E-005	0.00000E+000	-2.65979E-001	0.00000E+000	8	...........	0
	237	23.8	-2.62874E-001	2.04967E-005	0.00000E+000	-2.62979E-001	0.00000E+000	8	...........	0
	240	24.1	-2.59971E-001	2.14301E-005	0.00000E+000	-2.59979E-001	0.00000E+000	8	...........	0
	243	24.4	-2.56968E-001	2.23168E-005	0.00000E+000	-2.56979E-001	0.00000E+000	8	...........	0
	246	24.7	-2.53965E-001	2.27335E-005	0.00000E+000	-2.53978E-001	0.00000E+000	8	...........	0
	249	25	-2.50862E-001	2.41036E-005	0.00000E+000	-2.50978E-001	0.00000E+000	8	...........	0
	252	25.3	-2.47959E-001	2.48670E-005	0.00000E+000	-2.47978E-001	0.00000E+000	8	...........	0
	255	25.6	-2.44856E-001	2.62771E-005	0.00000E+000	-2.44978E-001	0.00000E+000	8	...........	0
	258	25.9	-2.41893E-001	2.70205E-005	0.00000E+000	-2.41978E-001	0.00000E+000	8	...........	0
	261	26.2	-2.38910E-001	2.79939E-005	0.00000E+000	-2.38978E-001	0.00000E+000	8	...........	0
	264	26.5	-2.35887E-001	2.88006E-005	0.00000E+000	-2.35978E-001	0.00000E+000	8	...........	0
	267	26.8	-2.32884E-001	3.00140E-005	0.00000E+000	-2.32978E-001	0.00000E+000	8	...........	0
	270	27.1	-2.29881E-001	3.07741E-005	0.00000E+000	-2.29977E-001	0.00000E+000	8	...........	0
	273	27.4	-2.26898E-001	3.15408E-005	0.00000E+000	-2.26977E-001	0.00000E+000	8	...........	0
	276	27.7	-2.23905E-001	3.20075E-005	0.00000E+000	-2.23977E-001	0.00000E+000	8	...........	0
	279	28	-2.20882E-001	3.33676E-005	0.00000E+000	-2.20977E-001	0.00000E+000	8	...........	0
	282	28.3	-2.17899E-001	3.32976E-005	0.00000E+000	-2.17977E-001	0.00000E+000	8	...........	0
	285	28.6	-2.14886E-001	3.38810E-005	0.00000E+000	-2.14977E-001	0.00000E+000	8	...........	0
	288	28.9	-2.11903E-001	3.38610E-005	0.00000E+000	-2.11977E-001	0.00000E+000	8	...........	0
	291	29.2	-2.08870E-001	3.42843E-005	0.00000E+000	-2.08977E-001	0.00000E+000	8	...........	0
	294	29.5	-2.05907E-001	3.47644E-005	0.00000E+000	-2.05976E-001	0.00000E+000	8	...........	0
	297	29.8	-2.02904E-001	3.52711E-005	0.00000E+000	-2.02976E-001	0.00000E+000	8	...........	0
	300	30.1	-1.99891E-001	3.58811E-005	0.00000E+000	-1.99976E-001	0.00000E+000	8	...........	0
	303	30.4	-1.96898E-001	3.66212E-005	0.00000E+000	-1.96976E-001	0.00000E+000	8	...........	0
	306	30.7	-1.93905E-001	3.63611E-005	0.00000E+000	-1.93976E-001	0.00000E+000	8	...........	0
	309	31	-1.90892E-001	3.60378E-005	0.00000E+000	-1.90976E-001	0.00000E+000	8	...........	0
	312	31.3	-1.87879E-001	3.58344E-005	0.00000E+000	-1.87976E-001	0.00000E+000	8	...........	0
	315	31.6	-1.84896E-001	3.58711E-005	0.00000E+000	-1.84976E-001	0.00000E+000	8	...........	0
	318	31.9	-1.81893E-001	3.62145E-005	0.00000E+000	-1.81975E-001	0.00000E+000	8	...........	0
	321	32.2	-1.78890E-001	3.64712E-005	0.00000E+000	-1.78975E-001	0.00000E+000	8	...........	0
	324	32.5	-1.75897E-001	3.63945E-005	0.00000E+000	-1.75975E-001	0.00000E+000	8	...........	0
	327	32.8	-1.72894E-001	3.65478E-005	0.00000E+000	-1.72975E-001	0.00000E+000	8	...........	0
	330	33.1	-1.69891E-001	3.77779E-005	0.00000E+000	-1.69975E-001	0.00000E+000	8	...........	0
	333	33.4	-1.66939E-001	3.75612E-005	0.00000E+000	-1.67025E-001	0.00000E+000	8	...........	0
	336	33.7	-1.63936E-001	3.82646E-005	0.00000E+000	-1.64025E-001	0.00000E+000	8	...........	0
	339	34	-1.60943E-001	3.79013E-005	0.00000E+000	-1.61025E-001	0.00000E+000	8	...........	0
	342	34.3	-1.57970E-001	3.85480E-005	0.00000E+000	-1.58025E-001	0.00000E+000	8	...........	0
	345	34.6	-1.54957E-001	3.85413E-005	0.00000E+000	-1.55024E-001	0.00000E+000	8	...........	0
	348	34.9	-1.51974E-001	3.86246E-005	0.00000E+000	-1.52024E-001	0.00000E+000	8	...........	0
	351	35.2	-1.48971E-001	3.86046E-005	0.00000E+000	-1.49024E-001	0.00000E+000	8	...........	0
	354	35.5	-1.45978E-001	3.87346E-005	0.00000E+000	-1.46024E-001	0.00000E+000	8	...........	0
	357	35.8	-1.42985E-001	3.86413E-005	0.00000E+000	-1.43024E-001	0.00000E+000	8	...........	0
	360	36.1	-1.39982E-001	3.87413E-005	0.00000E+000	-1.40024E-001	0.00000E+000	8	...........	0
	363	36.4	-1.36969E-001	3.88880E-005	0.00000E+000	-1.37024E-001	0.00000E+000	8	...........	0
	366	36.7	-1.33996E-001	3.87946E-005	0.00000E+000	-1.34024E-001	0.00000E+000	8	...........	0
	369	37	-1.30963E-001	3.90580E-005	0.00000E+000	-1.31023E-001	0.00000E+000	8	...........	0
	372	37.3	-1.27970E-001	3.91747E-005	0.00000E+000	-1.28023E-001	0.00000E+000	8	...........	0
	375	37.6	-1.24987E-001	3.95614E-005	0.00000E+000	-1.25023E-001	0.00000E+000	8	...........	0
	378	37.9	-1.21974E-001	3.96047E-005	0.00000E+000	-1.22023E-001	0.00000E+000	8	...........	0
	381	38.2	-1.18971E-001	3.97714E-005	0.00000E+000	-1.19023E-001	0.00000E+000	8	...........	0
	384	38.5	-1.15978E-001	3.98414E-005	0.00000E+000	-1.16023E-001	0.00000E+000	8	...........	0
	387	38.8	-1.12975E-001	3.96814E-005	0.00000E+000	-1.13023E-001	0.00000E+000	8	...........	0
	390	39.1	-1.09992E-001	3.95314E-005	0.00000E+000	-1.10023E-001	0.00000E+000	8	...........	0
	393	39.4	-1.06999E-001	3.95414E-005	0.00000E+000	-1.07022E-001	0.00000E+000	8	...........	0
	396	39.7	-1.03986E-001	3.93114E-005	0.00000E+000	-1.04022E-001	0.00000E+000	8	...........	0
	399	40	-1.00983E-001	3.92413E-005	0.00000E+000	-1.01022E-001	0.00000E+000	8	...........	0
	402	40.3	-9.79899E-002	3.87913E-005	0.00000E+000	-9.80221E-002	0.00000E+000	8	...........	0
	405	40.6	-9.49769E-002	3.94147E-005	0.00000E+000	-9.50219E-002	0.00000E+000	8	...........	0
	408	40.9	-9.19839E-002	3.96814E-005	0.00000E+000	-9.20218E-002	0.00000E+000	8	...........	0
	411	41.2	-8.89910E-002	3.97781E-005	0.00000E+000	-8.90217E-002	0.00000E+000	8	...........	0
	414	41.5	-8.59780E-002	4.08948E-005	0.00000E+000	-8.60216E-002	0.00000E+000	8	...........	0
	417	41.8	-8.29950E-002	4.09948E-005	0.00000E+000	-8.30214E-002	0.00000E+000	8	...........	0
	420	42.1	-7.99920E-002	4.13448E-005	0.00000E+000	-8.00213E-002	0.00000E+000	8	...........	0
	423	42.4	-7.69790E-002	4.12815E-005	0.00000E+000	-7.70212E-002	0.00000E+000	8	...........	0
	426	42.7	-7.39860E-002	4.14282E-005	0.00000E+000	-7.40211E-002	0.00000E+000	8	...........	0
	429	43	-7.09930E-002	4.09581E-005	0.00000E+000	-7.10210E-002	0.00000E+000	8	...........	0
	432	43.3	-6.79801E-002	4.10815E-005	0.00000E+000	-6.80208E-002	0.00000E+000	8	...........	0
	435	43.6	-6.49871E-002	4.09481E-005	0.00000E+000	-6.50207E-002	0.00000E+000	8	...........	0
	438	43.9	-6.19841E-002	4.14948E-005	0.00000E+000	-6.20206E-002	0.00000E+000	8	...........	0
	441	44.2	-5.89811E-002	4.16182E-005	0.00000E+000	-5.90205E-002	0.00000E+000	8	...........	0
	444	44.5	-5.59781E-002	4.17982E-005	0.00000E+000	-5.60203E-002	0.00000E+000	8	...........	0
	447	44.8	-5.29951E-002	4.17782E-005	0.00000E+000	-5.30202E-002	0.00000E+000	8	...........	0
	450	45.1	-4.99721E-002	4.21415E-005	0.00000E+000	-5.00201E-002	0.00000E+000	8	...........	0
	453	45.4	-4.69892E-002	4.22016E-005	0.00000E+000	-4.70200E-002	0.00000E+000	8	...........	0
	456	45.7	-4.39762E-002	4.26316E-005	0.00000E+000	-4.40199E-002	0.00000E+000	8	...........	0
	459	46	-4.09832E-002	4.25216E-005	0.00000E+000	-4.10197E-002	0.00000E+000	8	...........	0
	462	46.3	-3.79602E-002	4.25716E-005	0.00000E+000	-3.80196E-002	0.00000E+000	8	...........	0
	465	46.6	-3.49872E-002	4.31283E-005	0.00000E+000	-3.50195E-002	0.00000E+000	8	...........	0
	468	46.9	-3.19742E-002	4.33916E-005	0.00000E+000	-3.20194E-002	0.00000E+000	8	...........	0
	471	47.2	-2.89912E-002	4.33783E-005	0.00000E+000	-2.90192E-002	0.00000E+000	8	...........	0
	474	47.5	-2.59782E-002	4.28449E-005	0.00000E+000	-2.60191E-002	0.00000E+000	8	...........	0
	477	47.8	-2.29690E-002	4.22716E-005	0.00000E+000	-2.30190E-002	0.00000E+000	8	...........	0
	480	48.1	-1.99730E-002	4.23116E-005	0.00000E+000	-2.00189E-002	0.00000E+000	8	...........	0
	483	48.4	-1.69670E-002	4.35517E-005	0.00000E+000	-1.70187E-002	0.00000E+000	8	...........	0
	486	48.7	-1.39731E-002	4.44517E-005	0.00000E+000	-1.40186E-002	0.00000E+000	8	...........	0
	489	49	-1.09861E-002	4.43117E-005	0.00000E+000	-1.10185E-002	0.00000E+000	8	...........	0
	492	49.3	-7.97308E-003	4.48384E-005	0.00000E+000	-8.01838E-003	0.00000E+000	8	...........	0
	495	49.6	-4.98611E-003	4.46551E-005	0.00000E+000	-5.01826E-003	0.00000E+000	8	...........	0
	498	49.9	-1.98312E-003	4.58418E-005	0.00000E+000	-2.01814E-003	0.00000E+000	8	...........	0
	501	50.2	1.00986E-003	4.60052E-005	0.00000E+000	9.81987E-004	0.00000E+000	8	...........	0
	504	50.5	4.01885E-003	4.54218E-005	0.00000E+000	3.98211E-003	0.00000E+000	8	...........	0
	507	50.8	7.01083E-003	4.58751E-005	0.00000E+000	6.98223E-003	0.00000E+000	8	...........	0
	510	51.1	1.00098E-002	4.51184E-005	0.00000E+000	9.98235E-003	0.00000E+000	8	...........	0
	513	51.4	1.30138E-002	4.56085E-005	0.00000E+000	1.29825E-002	0.00000E+000	8	...........	0
	516	51.7	1.60058E-002	4.61252E-005	0.00000E+000	1.59826E-002	0.00000E+000	8	...........	0
	519	52	1.90168E-002	4.72352E-005	0.00000E+000	1.89827E-002	0.00000E+000	8	...........	0
	522	52.3	2.19907E-002	4.76453E-005	0.00000E+000	2.19828E-002	0.00000E+000	8	...........	0
	525	52.6	2.50138E-002	4.75053E-005	0.00000E+000	2.49830E-002	0.00000E+000	8	...........	0
	528	52.9	2.80255E-002	4.77853E-005	0.00000E+000	2.79831E-002	0.00000E+000	8	...........	0
	531	53.2	3.10185E-002	4.83053E-005	0.00000E+000	3.09832E-002	0.00000E+000	8	...........	0
	534	53.5	3.40115E-002	4.90120E-005	0.00000E+000	3.39833E-002	0.00000E+000	8	...........	0
	537	53.8	3.70245E-002	4.94354E-005	0.00000E+000	3.69835E-002	0.00000E+000	8	...........	0
	540	54.1	4.00275E-002	5.02521E-005	0.00000E+000	3.99836E-002	0.00000E+000	8	...........	0
	543	54.4	4.30204E-002	5.07522E-005	0.00000E+000	4.29837E-002	0.00000E+000	8	...........	0
	546	54.7	4.60134E-002	5.21222E-005	0.00000E+000	4.59838E-002	0.00000E+000	8	...........	0
	549	55	4.89964E-002	5.41024E-005	0.00000E+000	4.89840E-002	0.00000E+000	8	...........	0
	552	55.3	5.20094E-002	5.44857E-005	0.00000E+000	5.19841E-002	0.00000E+000	8	...........	0
	555	55.6	5.50224E-002	5.60725E-005	0.00000E+000	5.49842E-002	0.00000E+000	8	...........	0
	558	55.9	5.79953E-002	5.70426E-005	0.00000E+000	5.79843E-002	0.00000E+000	8	...........	0
	561	56.2	6.10083E-002	5.84560E-005	0.00000E+000	6.09844E-002	0.00000E+000	8	...........	0
	564	56.5	6.40313E-002	5.94661E-005	0.00000E+000	6.39846E-002	0.00000E+000	8	...........	0
	567	56.8	6.70343E-002	6.01528E-005	0.00000E+000	6.69847E-002	0.00000E+000	8	...........	0
	570	57.1	7.00473E-002	6.02962E-005	0.00000E+000	6.99848E-002	0.00000E+000	8	...........	0
	573	57.4	7.30103E-002	6.14362E-005	0.00000E+000	7.29849E-002	0.00000E+000	8	...........	0
	576	57.7	7.60133E-002	6.24896E-005	0.00000E+000	7.59851E-002	0.00000E+000	8	...........	0
	579	58	7.90163E-002	6.37664E-005	0.00000E+000	7.89852E-002	0.00000E+000	8	...........	0
	582	58.3	8.20193E-002	6.39097E-005	0.00000E+000	8.19853E-002	0.00000E+000	8	...........	0
	585	58.6	8.50122E-002	6.64399E-005	0.00000E+000	8.49854E-002	0.00000E+000	8	...........	0
	588	58.9	8.80252E-002	6.77933E-005	0.00000E+000	8.79855E-002	0.00000E+000	8	...........	0
	591	59.2	9.10182E-002	6.67999E-005	0.00000E+000	9.09857E-002	0.00000E+000	8	...........	0
	594	59.5	9.40212E-002	6.72500E-005	0.00000E+000	9.39858E-002	0.00000E+000	8	...........	0
	597	59.8	9.70342E-002	6.90334E-005	0.00000E+000	9.69859E-002	0.00000E+000	8	...........	0
	600	60.1	1.00017E-001	7.02735E-005	0.00000E+000	9.99860E-002	0.00000E+000	8	...........	0
	603	60.4	1.03020E-001	7.08636E-005	0.00000E+000	1.02986E-001	0.00000E+000	8	...........	0
	606	60.7	1.06023E-001	7.14436E-005	0.00000E+000	1.05986E-001	0.00000E+000	8	...........	0
	609	61	1.09006E-001	7.24603E-005	0.00000E+000	1.08986E-001	0.00000E+000	8	...........	0
	612	61.3	1.12009E-001	7.38304E-005	0.00000E+000	1.11987E-001	0.00000E+000	8	...........	0
	615	61.6	1.15002E-001	7.53472E-005	0.00000E+000	1.14987E-001	0.00000E+000	8	...........	0
	618	61.9	1.18015E-001	7.66806E-005	0.00000E+000	1.17987E-001	0.00000E+000	8	...........	0
	621	62.2	1.20998E-001	7.75474E-005	0.00000E+000	1.20987E-001	0.00000E+000	8	...........	0
	624	62.5	1.24001E-001	7.88941E-005	0.00000E+000	1.23987E-001	0.00000E+000	8	...........	0
	627	62.8	1.26994E-001	8.02042E-005	0.00000E+000	1.26987E-001	0.00000E+000	8	...........	0
	630	63.1	1.30027E-001	8.14210E-005	0.00000E+000	1.29987E-001	0.00000E+000	8	...........	0
	633	63.4	1.33010E-001	8.26010E-005	0.00000E+000	1.32987E-001	0.00000E+000	8	...........	0
	636	63.7	1.36003E-001	8.42112E-005	0.00000E+000	1.35988E-001	0.00000E+000	8	...........	0
	639	64	1.39016E-001	8.51479E-005	0.00000E+000	1.38988E-001	0.00000E+000	8	...........	0
	642	64.3	1.42009E-001	8.79828E-005	0.00000E+000	1.41988E-001	0.00000E+000	9	...........	0
	645	64.6	1.45012E-001	8.88818E-005	0.00000E+000	1.44988E-001	0.00000E+000	9	...........	0
	648	64.9	1.48015E-001	9.01470E-005	0.00000E+000	1.47988E-001	0.00000E+000	9	...........	0
	651	65.2	1.51008E-001	9.14454E-005	0.00000E+000	1.50988E-001	0.00000E+000	9	...........	0
	654	65.5	1.53991E-001	9.30103E-005	0.00000E+000	1.53988E-001	0.00000E+000	9	...........	0
	657	65.8	1.57014E-001	9.43753E-005	0.00000E+000	1.56988E-001	0.00000E+000	9	...........	0
	660	66.1	1.60007E-001	9.56738E-005	0.00000E+000	1.59988E-001	0.00000E+000	9	...........	0
	663	66.4	1.63010E-001	9.69723E-005	0.00000E+000	1.62989E-001	0.00000E+000	9	...........	0
	666	66.7	1.66023E-001	9.86703E-005	0.00000E+000	1.65989E-001	0.00000E+000	9	...........	0
	669	67	1.69006E-001	9.97357E-005	0.00000E+000	1.68989E-001	0.00000E+000	9	...........	0
	672	67.3	1.71999E-001	1.00535E-004	0.00000E+000	1.71989E-001	0.00000E+000	9	...........	0
	675	67.6	1.75002E-001	1.01700E-004	0.00000E+000	1.74989E-001	0.00000E+000	9	...........	0
	678	67.9	1.77995E-001	1.02632E-004	0.00000E+000	1.77989E-001	0.00000E+000	9	...........	0
	681	68.2	1.81008E-001	1.04264E-004	0.00000E+000	1.80989E-001	0.00000E+000	9	...........	0
	684	68.5	1.84011E-001	1.05462E-004	0.00000E+000	1.83989E-001	0.00000E+000	9	...........	0
	687	68.8	1.87004E-001	1.06162E-004	0.00000E+000	1.86990E-001	0.00000E+000	9	...........	0
	690	69.1	1.90007E-001	1.08126E-004	0.00000E+000	1.89990E-001	0.00000E+000	9	...........	0
	693	69.4	1.93010E-001	1.09091E-004	0.00000E+000	1.92990E-001	0.00000E+000	9	...........	0
	696	69.7	1.96003E-001	1.10190E-004	0.00000E+000	1.95990E-001	0.00000E+000	9	...........	0
	699	70	1.98996E-001	1.12288E-004	0.00000E+000	1.98990E-001	0.00000E+000	9	...........	0
	702	70.3	2.01999E-001	1.12188E-004	0.00000E+000	2.01990E-001	0.00000E+000	9	...........	0
	705	70.6	2.04982E-001	1.13952E-004	0.00000E+000	2.04990E-001	0.00000E+000	9	...........	0
	708	70.9	2.08015E-001	1.16083E-004	0.00000E+000	2.07990E-001	0.00000E+000	9	...........	0
	711	71.2	2.11018E-001	1.17881E-004	0.00000E+000	2.10991E-001	0.00000E+000	9	...........	0
	714	71.5	2.14011E-001	1.18780E-004	0.00000E+000	2.13991E-001	0.00000E+000	9	...........	0
	717	71.8	2.17004E-001	1.20212E-004	0.00000E+000	2.16991E-001	0.00000E+000	9	...........	0
	720	72.1	2.20007E-001	1.20345E-004	0.00000E+000	2.19991E-001	0.00000E+000	9	...........	0
	723	72.4	2.22990E-001	1.21543E-004	0.00000E+000	2.22991E-001	0.00000E+000	9	...........	0
	726	72.7	2.25993E-001	1.23375E-004	0.00000E+000	2.25991E-001	0.00000E+000	9	...........	0
	729	73	2.28976E-001	1.24274E-004	0.00000E+000	2.28991E-001	0.00000E+000	9	...........	0
	732	73.3	2.32019E-001	1.25572E-004	0.00000E+000	2.31991E-001	0.00000E+000	9	...........	0
	735	73.6	2.34992E-001	1.26937E-004	0.00000E+000	2.34992E-001	0.00000E+000	9	...........	0
	738	73.9	2.38015E-001	1.28502E-004	0.00000E+000	2.37992E-001	0.00000E+000	9	...........	0
	741	74.2	2.40987E-001	1.29634E-004	0.00000E+000	2.40992E-001	0.00000E+000	9	...........	0
	744	74.5	2.44000E-001	1.30666E-004	0.00000E+000	2.43992E-001	0.00000E+000	9	...........	0
	747	74.8	2.46993E-001	1.31632E-004	0.00000E+000	2.46992E-001	0.00000E+000	9	...........	0
	750	75.1	2.49996E-001	1.33296E-004	0.00000E+000	2.49992E-001	0.00000E+000	9	...........	0
	753	75.4	2.52989E-001	1.34961E-004	0.00000E+000	2.52992E-001	0.00000E+000	9	...........	0
	756	75.7	2.55942E-001	1.35927E-004	0.00000E+000	2.55992E-001	0.00000E+000	9	...........	0
	759	76	2.58965E-001	1.37658E-004	0.00000E+000	2.58993E-001	0.00000E+000	9	...........	0
	762	76.3	2.61968E-001	1.38424E-004	0.00000E+000	2.61993E-001	0.00000E+000	9	...........	0
	765	76.6	2.64971E-001	1.40222E-004	0.00000E+000	2.64993E-001	0.00000E+000	9	...........	0
	768	76.9	2.68055E-001	1.41753E-004	0.00000E+000	2.67993E-001	0.00000E+000	9	...........	0
	771	77.2	2.71158E-001	1.42918E-004	0.00000E+000	2.70993E-001	0.00000E+000	9	...........	0
	774	77.5	2.74161E-001	1.44616E-004	0.00000E+000	2.73993E-001	0.00000E+000	9	...........	0
	777	77.8	2.77264E-001	1.46015E-004	0.00000E+000	2.76993E-001	0.00000E+000	9	...........	0
	780	78.1	2.80167E-001	1.47513E-004	0.00000E+000	2.79993E-001	0.00000E+000	9	...........	0
	783	78.4	2.83170E-001	1.48578E-004	0.00000E+000	2.82993E-001	0.00000E+000	9	...........	0
	786	78.7	2.86173E-001	1.49744E-004	0.00000E+000	2.85994E-001	0.00000E+000	9	...........	0
	789	79	2.89076E-001	1.49677E-004	0.00000E+000	2.88994E-001	0.00000E+000	9	...........	0
	792	79.3	2.92279E-001	1.51175E-004	0.00000E+000	2.91994E-001	0.00000E+000	9	...........	0
	795	79.6	2.95182E-001	1.52907E-004	0.00000E+000	2.94994E-001	0.00000E+000	9	...........	0
	798	79.9	2.98085E-001	1.55637E-004	0.00000E+000	2.97994E-001	0.00000E+000	9	...........	0
	801	80.2	3.01088E-001	1.56536E-004	0.00000E+000	3.00994E-001	0.00000E+000	9	...........	0
	804	80.5	3.04091E-001	1.59566E-004	0.00000E+000	3.03994E-001	0.00000E+000	9	...........	0
	807	80.8	3.07094E-001	1.61197E-004	0.00000E+000	3.06994E-001	0.00000E+000	9	...........	0
	810	81.1	3.10197E-001	1.63894E-004	0.00000E+000	3.09995E-001	0.00000E+000	9	...........	0
	813	81.4	3.13100E-001	1.66058E-004	0.00000E+000	3.12995E-001	0.00000E+000	9	...........	0
	816	81.7	3.16203E-001	1.66424E-004	0.00000E+000	3.15995E-001	0.00000E+000	9	...........	0
	819	82	3.19106E-001	1.69021E-004	0.00000E+000	3.18995E-001	0.00000E+000	9	...........	0
	822	82.3	3.22209E-001	1.70220E-004	0.00000E+000	3.21995E-001	0.00000E+000	9	...........	0
	825	82.6	3.25212E-001	1.71252E-004	0.00000E+000	3.24995E-001	0.00000E+000	9	...........	0
	828	82.9	3.28215E-001	1.71185E-004	0.00000E+000	3.27995E-001	0.00000E+000	9	...........	0
	831	83.2	3.31118E-001	1.72850E-004	0.00000E+000	3.30995E-001	0.00000E+000	9	...........	0
	834	83.5	3.34121E-001	1.75547E-004	0.00000E+000	3.33996E-001	0.00000E+000	9	...........	0
	837	83.8	3.37124E-001	1.77611E-004	0.00000E+000	3.36996E-001	0.00000E+000	9	...........	0
	840	84.1	3.40227E-001	1.78743E-004	0.00000E+000	3.39996E-001	0.00000E+000	9	...........	0
	843	84.4	3.43130E-001	1.80374E-004	0.00000E+000	3.42996E-001	0.00000E+000	9	...........	0
	846	84.7	3.46133E-001	1.80841E-004	0.00000E+000	3.45996E-001	0.00000E+000	9	...........	0
	849	85	3.49136E-001	1.82472E-004	0.00000E+000	3.48996E-001	0.00000E+000	9	...........	0
	852	85.3	3.52239E-001	1.82405E-004	0.00000E+000	3.51996E-001	0.00000E+000	9	...........	0
	855	85.6	3.55242E-001	1.85136E-004	0.00000E+000	3.54996E-001	0.00000E+000	9	...........	0
	858	85.9	3.58145E-001	1.88298E-004	0.00000E+000	3.57997E-001	0.00000E+000	9	...........	0
	861	86.2	3.61248E-001	1.90196E-004	0.00000E+000	3.60997E-001	0.00000E+000	9	...........	0
	864	86.5	3.64151E-001	1.91695E-004	0.00000E+000	3.63997E-001	0.00000E+000	9	...........	0
	867	86.8	3.67254E-001	1.94125E-004	0.00000E+000	3.66997E-001	0.00000E+000	9	...........	0
	870	87.1	3.70257E-001	1.96456E-004	0.00000E+000	3.69997E-001	0.00000E+000	9	...........	0
	873	87.4	3.73160E-001	1.99485E-004	0.00000E+000	3.72997E-001	0.00000E+000	9	...........	0
	876	87.7	3.76162E-001	2.01916E-004	0.00000E+000	3.75997E-001	0.00000E+000	9	...........	0
	879	88	3.79166E-001	2.03680E-004	0.00000E+000	3.78997E-001	0.00000E+000	9	...........	0
	882	88.3	3.82169E-001	2.06577E-004	0.00000E+000	3.81998E-001	0.00000E+000	9	...........	0
	885	88.6	3.85272E-001	2.08874E-004	0.00000E+000	3.84998E-001	0.00000E+000	9	...........	0
	888	88.9	3.88174E-001	2.11904E-004	0.00000E+000	3.87998E-001	0.00000E+000	9	...........	0
	891	89.2	3.91077E-001	2.17697E-004	0.00000E+000	3.90998E-001	0.00000E+000	9	...........	0
	894	89.5	3.94281E-001	2.21060E-004	0.00000E+000	3.93998E-001	0.00000E+000	9	...........	0
	897	89.8	3.97183E-001	2.25089E-004	0.00000E+000	3.96998E-001	0.00000E+000	9	...........	0
	900	90.1	4.00186E-001	2.30283E-004	0.00000E+000	3.99998E-001	0.00000E+000	9	...........	0
	903	90.4	4.03189E-001	2.35909E-004	0.00000E+000	4.02998E-001	0.00000E+000	9	...........	0
	906	90.7	4.06192E-001	2.40870E-004	0.00000E+000	4.05999E-001	0.00000E+000	9	...........	0
	909	91	4.09195E-001	2.46663E-004	0.00000E+000	4.08999E-001	0.00000E+000	9	...........	0
	912	91.3	4.12298E-001	2.54388E-004	0.00000E+000	4.11999E-001	0.00000E+000	9	...........	0
	915	91.6	4.15201E-001	2.61779E-004	0.00000E+000	4.14999E-001	0.00000E+000	9	...........	0
	918	91.9	4.18204E-001	2.69903E-004	0.00000E+000	4.17999E-001	0.00000E+000	9	...........	0
	921	92.2	4.21207E-001	2.79159E-004	0.00000E+000	4.20999E-001	0.00000E+000	9	...........	0
	924	92.5	4.24210E-001	2.89480E-004	0.00000E+000	4.23999E-001	0.00000E+000	9	...........	0
	927	92.8	4.27213E-001	3.00001E-004	0.00000E+000	4.26999E-001	0.00000E+000	9	...........	0
	930	93.1	4.30216E-001	3.07758E-004	0.00000E+000	4.30000E-001	0.00000E+000	9	...........	0
	933	93.4	4.33219E-001	3.16082E-004	0.00000E+000	4.33000E-001	0.00000E+000	9	...........	0
	936	93.7	4.36222E-001	3.26103E-004	0.00000E+000	4.36000E-001	0.00000E+000	9	...........	0
	939	94	4.39225E-001	3.37224E-004	0.00000E+000	4.39000E-001	0.00000E+000	9	...........	0
	942	94.3	4.42228E-001	3.49210E-004	0.00000E+000	4.42000E-001	0.00000E+000	9	...........	0
	945	94.6	4.45131E-001	3.58832E-004	0.00000E+000	4.45000E-001	0.00000E+000	9	...........	0
	948	94.9	4.48234E-001	3.69386E-004	0.00000E+000	4.48000E-001	0.00000E+000	9	...........	0
	951	95.2	4.51237E-001	3.81339E-004	0.00000E+000	4.51000E-001	0.00000E+000	9	...........	0
	954	95.5	4.54140E-001	3.95888E-004	0.00000E+000	4.54001E-001	0.00000E+000	9	...........	0
	957	95.8	4.57143E-001	4.10138E-004	0.00000E+000	4.57001E-001	0.00000E+000	9	...........	0
	960	96.1	4.60146E-001	4.23756E-004	0.00000E+000	4.60001E-001	0.00000E+000	9	...........	0
	963	96.4	4.63249E-001	4.37406E-004	0.00000E+000	4.63001E-001	0.00000E+000	9	...........	0
	966	96.7	4.66252E-001	4.51157E-004	0.00000E+000	4.66001E-001	0.00000E+000	9	...........	0
	969	97	4.69155E-001	4.68969E-004	0.00000E+000	4.69001E-001	0.00000E+000	9	...........	0
	972	97.3	4.72158E-001	4.85883E-004	0.00000E+000	4.72001E-001	0.00000E+000	9	...........	0
	975	97.6	4.75161E-001	5.02197E-004	0.00000E+000	4.75001E-001	0.00000E+000	9	...........	0
	978	97.9	4.78164E-001	5.19576E-004	0.00000E+000	4.78001E-001	0.00000E+000	9	...........	0
	981	98.2	4.81167E-001	5.36224E-004	0.00000E+000	4.81002E-001	0.00000E+000	9	...........	0
	984	98.5	4.84170E-001	5.52504E-004	0.00000E+000	4.84002E-001	0.00000E+000	9	...........	0
	987	98.8	4.87273E-001	5.68552E-004	0.00000E+000	4.87002E-001	0.00000E+000	9	...........	0
	990	99.1	4.90176E-001	5.84367E-004	0.00000E+000	4.90002E-001	0.00000E+000	9	...........	0
	993	99.4	4.93179E-001	6.01614E-004	0.00000E+000	4.93002E-001	0.00000E+000	9	...........	0
	996	99.7	4.96182E-001	6.17795E-004	0.00000E+000	4.96002E-001	0.00000E+000	9	...........	0
	999	100	4.99285E-001	6.33942E-004	0.00000E+000	4.99002E-001	0.00000E+000	9	...........	0
	1002	100.3	5.02188E-001	6.51522E-004	0.00000E+000	5.02002E-001	0.00000E+000	9	...........	0
	1005	100.6	5.05191E-001	6.65938E-004	0.00000E+000	5.05003E-001	0.00000E+000	9	...........	0
	1008	100.9	5.08194E-001	6.82452E-004	0.00000E+000	5.08003E-001	0.00000E+000	9	...........	0
	1011	101.2	5.11197E-001	6.98134E-004	0.00000E+000	5.11003E-001	0.00000E+000	9	...........	0
	1014	101.5	5.14200E-001	7.15180E-004	0.00000E+000	5.14003E-001	0.00000E+000	9	...........	0
	1017	101.8	5.17203E-001	7.31228E-004	0.00000E+000	5.17003E-001	0.00000E+000	9	...........	0
	1020	102.1	5.20206E-001	7.48175E-004	0.00000E+000	5.20003E-001	0.00000E+000	9	...........	0
	1023	102.4	5.23109E-001	7.64323E-004	0.00000E+000	5.23003E-001	0.00000E+000	9	...........	0
	1026	102.7	5.26212E-001	7.77940E-004	0.00000E+000	5.26003E-001	0.00000E+000	9	...........	0
	1029	103	5.29215E-001	7.90692E-004	0.00000E+000	5.29004E-001	0.00000E+000	9	...........	0
	1032	103.3	5.32218E-001	8.05308E-004	0.00000E+000	5.32004E-001	0.00000E+000	9	...........	0
	1035	103.6	5.35221E-001	8.22488E-004	0.00000E+000	5.35004E-001	0.00000E+000	9	...........	0
	1038	103.9	5.38324E-001	8.39501E-004	0.00000E+000	5.38004E-001	0.00000E+000	9	...........	0
	1041	104.2	5.41227E-001	8.57147E-004	0.00000E+000	5.41004E-001	0.00000E+000	9	...........	0
	1044	104.5	5.44230E-001	8.72629E-004	0.00000E+000	5.44004E-001	0.00000E+000	9	...........	0
	1047	104.8	5.47233E-001	8.93671E-004	0.00000E+000	5.47004E-001	0.00000E+000	9	...........	0
	1050	105.1	5.50236E-001	9.18772E-004	0.00000E+000	5.50004E-001	0.00000E+000	10	...........	0
	1053	105.4	5.53239E-001	9.46980E-004	0.00000E+000	5.53005E-001	0.00000E+000	10	...........	0
	1056	105.7	5.56242E-001	9.70541E-004	0.00000E+000	5.56005E-001	0.00000E+000	10	...........	0
	1059	106	5.59245E-001	9.97090E-004	0.00000E+000	5.59005E-001	0.00000E+000	10	...........	0
	1062	106.3	5.62248E-001	1.02463E-003	0.00000E+000	5.62005E-001	0.00000E+000	10	...........	0
	1065	106.6	5.65251E-001	1.05317E-003	0.00000E+000	5.65005E-001	0.00000E+000	10	...........	0
	1068	106.9	5.68254E-001	1.08138E-003	0.00000E+000	5.68005E-001	0.00000E+000	10	...........	0
	1071	107.2	5.71257E-001	1.11158E-003	0.00000E+000	5.71005E-001	0.00000E+000	10	...........	0
	1074	107.5	5.74260E-001	1.14145E-003	0.00000E+000	5.74005E-001	0.00000E+000	10	...........	0
	1077	107.8	5.77263E-001	1.17331E-003	0.00000E+000	5.77006E-001	0.00000E+000	10	...........	0
	1080	108.1	5.80266E-001	1.20483E-003	0.00000E+000	5.80006E-001	0.00000E+000	10	...........	0
	1083	108.4	5.83269E-001	1.23769E-003	0.00000E+000	5.83006E-001	0.00000E+000	10	...........	0
	1086	108.7	5.86172E-001	1.27021E-003	0.00000E+000	5.86006E-001	0.00000E+000	10	...........	0
	1089	109	5.89275E-001	1.30173E-003	0.00000E+000	5.89006E-001	0.00000E+000	10	...........	0
	1092	109.3	5.92178E-001	1.33359E-003	0.00000E+000	5.92006E-001	0.00000E+000	10	...........	0
	1095	109.6	5.95181E-001	1.36811E-003	0.00000E+000	5.95006E-001	0.00000E+000	10	...........	0
	1098	109.9	5.98284E-001	1.40229E-003	0.00000E+000	5.98006E-001	0.00000E+000	10	...........	0
	1100	110.1	6.00186E-001	1.42187E-003	0.00000E+000	6.00006E-001	0.00000E+000	10	...........	0