File: LSV ZFO/ZFO_chop.DTA
EXPLAIN
TAG	LSV
TITLE	LABEL	Linear Sweep Voltammetry	Test &Identifier
DATE	LABEL	7/5/2024	Date
TIME	LABEL	15:31:40	Time
NOTES	NOTES	1	&Notes...

PSTAT	PSTAT	L3FNano	Potentiostat
VINIT	POTEN	-5.00000E-001	F	&Initial E (V)
VFINAL	POTEN	6.00000E-001	F	&Final E (V)
SCANRATE	QUANT	9.99998E+000	&Scan Rate (mV/s)
STEPSIZE	QUANT	1.00000E+000	St&ep Size (mV)
IMODE	SELECTOR	0	I/E Range &Mode
IRANGE	QUANT	1.00000E+001	&Max Current (mA)
AREA	QUANT	1.00000E+000	Electrode &Area (cm^2)
ELECTRODETYPE	SELECTOR	0	Electrode Type
STRIPPING	TOGGLE	F	Used for Stripping
POLARITY	TOGGLE	F	Signal Polarity
CONDIT	TWOPARAM	F	1.50000E+001	0.00000E+000	Conditionin&g	Time(s)	E(V)
DELAY	TWOPARAM	F	3.00000E+001	0.00000E+000	Init. De&lay	Time(s)	Stab.(mV/s)
EQDELAY	QUANT	5.00000E+000	Equil. &Time (s)
IRCOMP	SELECTOR	0	IRCom&p
PFCOR	QUANT	5.00000E+001	PF Corr. (ohm)
SAMPLINGMODE	SELECTOR	0	Sampling &Mode
EOC	QUANT	0	Open Circuit (V)
PSTATMODEL	IQUANT	48	Pstat Model
PSTATSECTION	LABEL	IFC1000-07082	Pstat Section
PSTATSERIALNO	LABEL	07082	Pstat Serial Number
CTRLMODE	IQUANT	1	Control Mode
IESTAB	IQUANT	2	I/E Stability
CASPEED	IQUANT	2	Control Amp Speed
CONVENTION	IQUANT	1	Current Convention
ICHRANGE	IQUANT	2	Ich Range
ICHRANGEMODE	TOGGLE	F	Ich Auto Range
ICHOFFSETENABLE	TOGGLE	F	Ich Offset Enable
ICHOFFSET	QUANT	0	Ich Offset (V)
ICHFILTER	IQUANT	3	Ich Filter
VCHRANGE	IQUANT	2	Vch Range
VCHRANGEMODE	TOGGLE	T	Vch Auto Range
VCHOFFSETENABLE	TOGGLE	F	Vch Offset Enable
VCHOFFSET	QUANT	0	Vch Offset (V)
VCHFILTER	IQUANT	3	Vch Filter
IERANGELOWERLIMIT	IQUANT	4	I/E Range Lower Limit
IERANGEMODE	TOGGLE	T	I/E AutoRange
IERANGE	IQUANT	11	I/E Range
ACHSELECT	IQUANT	4	Ach Select
CABLEID	IQUANT	14	Cable ID
DCCALDATE	LABEL	7/3/2024	DC Calibration Date
ACCALDATE	LABEL	7/3/2024	AC Calibration Date
FRAMEWORKVERSION	QUANT	6.24	Framework Version
INSTRUMENTVERSION	LABEL	3.28	Instrument Version
CURVE	TABLE	1101
	Pt	T	Vf	Im	Vu	Sig	Ach	IERange	Over	Cycle
	#	s	V vs. Ref.	A	V	V	V	#	bits	#
	0	0.1	-5.00010E-001	1.93704E-006	0.00000E+000	-4.99988E-001	0.00000E+000	11	...........	0
	3	0.4	-4.96906E-001	-4.06501E-006	0.00000E+000	-4.96988E-001	0.00000E+000	8	...........	0
	6	0.7	-4.94004E-001	-3.74850E-006	0.00000E+000	-4.93988E-001	0.00000E+000	7	...........	0
	9	1	-4.91101E-001	-3.30338E-006	0.00000E+000	-4.90988E-001	0.00000E+000	7	...........	0
	12	1.3	-4.87898E-001	-2.94128E-006	0.00000E+000	-4.87988E-001	0.00000E+000	7	...........	0
	15	1.6	-4.84995E-001	-2.64587E-006	0.00000E+000	-4.84988E-001	0.00000E+000	7	...........	0
	18	1.9	-4.81992E-001	-2.42280E-006	0.00000E+000	-4.81988E-001	0.00000E+000	7	...........	0
	21	2.2	-4.78889E-001	-2.21575E-006	0.00000E+000	-4.78988E-001	0.00000E+000	7	...........	0
	24	2.5	-4.75986E-001	-1.98435E-006	0.00000E+000	-4.75987E-001	0.00000E+000	7	...........	0
	27	2.8	-4.72983E-001	-1.77796E-006	0.00000E+000	-4.72987E-001	0.00000E+000	7	...........	0
	30	3.1	-4.69880E-001	-1.63225E-006	0.00000E+000	-4.69987E-001	0.00000E+000	7	...........	0
	33	3.4	-4.66977E-001	-1.54756E-006	0.00000E+000	-4.66987E-001	0.00000E+000	7	...........	0
	36	3.7	-4.63974E-001	-1.38952E-006	0.00000E+000	-4.63987E-001	0.00000E+000	7	...........	0
	39	4	-4.60971E-001	-1.29816E-006	0.00000E+000	-4.60987E-001	0.00000E+000	7	...........	0
	42	4.3	-4.57968E-001	-1.20014E-006	0.00000E+000	-4.57987E-001	0.00000E+000	7	...........	0
	45	4.6	-4.54965E-001	-1.13745E-006	0.00000E+000	-4.54987E-001	0.00000E+000	7	...........	0
	48	4.9	-4.52062E-001	-1.02375E-006	0.00000E+000	-4.51987E-001	0.00000E+000	7	...........	0
	51	5.2	-4.48959E-001	-9.23060E-007	0.00000E+000	-4.48986E-001	0.00000E+000	7	...........	0
	54	5.5	-4.45956E-001	-8.77047E-007	0.00000E+000	-4.45986E-001	0.00000E+000	7	...........	0
	57	5.8	-4.42953E-001	-8.10362E-007	0.00000E+000	-4.42986E-001	0.00000E+000	7	...........	0
	60	6.1	-4.39950E-001	1.28155E-006	0.00000E+000	-4.39986E-001	0.00000E+000	7	...........	0
	63	6.4	-4.36947E-001	3.69629E-007	0.00000E+000	-4.36986E-001	0.00000E+000	7	...........	0
	66	6.7	-4.33844E-001	-1.08089E-008	0.00000E+000	-4.33986E-001	0.00000E+000	7	...........	0
	69	7	-4.30941E-001	-1.65852E-007	0.00000E+000	-4.30986E-001	0.00000E+000	7	...........	0
	72	7.3	-4.27938E-001	-2.05196E-007	0.00000E+000	-4.27986E-001	0.00000E+000	7	...........	0
	75	7.6	-4.24835E-001	-2.71881E-007	0.00000E+000	-4.24985E-001	0.00000E+000	7	...........	0
	78	7.9	-4.21932E-001	-1.75521E-007	0.00000E+000	-4.21985E-001	0.00000E+000	7	...........	0
	81	8.2	-4.18829E-001	-1.61517E-007	0.00000E+000	-4.18985E-001	0.00000E+000	7	...........	0
	84	8.5	-4.16026E-001	-1.29508E-007	0.00000E+000	-4.15985E-001	0.00000E+000	7	...........	0
	87	8.8	-4.12923E-001	-1.21839E-007	0.00000E+000	-4.12985E-001	0.00000E+000	7	...........	0
	90	9.1	-4.09920E-001	-1.27174E-007	0.00000E+000	-4.09985E-001	0.00000E+000	7	...........	0
	93	9.4	-4.07017E-001	-6.14895E-008	0.00000E+000	-4.06985E-001	0.00000E+000	7	...........	0
	96	9.7	-4.03914E-001	-2.08117E-008	0.00000E+000	-4.03985E-001	0.00000E+000	7	...........	0
	99	10	-4.00911E-001	-7.28259E-008	0.00000E+000	-4.00984E-001	0.00000E+000	7	...........	0
	102	10.3	-3.97908E-001	-2.04782E-008	0.00000E+000	-3.97984E-001	0.00000E+000	7	...........	0
	105	10.6	-3.94905E-001	-3.27563E-007	0.00000E+000	-3.94984E-001	0.00000E+000	7	...........	0
	108	10.9	-3.91902E-001	-8.50373E-007	0.00000E+000	-3.91984E-001	0.00000E+000	7	...........	0
	111	11.2	-3.88899E-001	-7.38676E-007	0.00000E+000	-3.88984E-001	0.00000E+000	7	...........	0
	114	11.5	-3.85996E-001	-6.68990E-007	0.00000E+000	-3.85984E-001	0.00000E+000	7	...........	0
	117	11.8	-3.82893E-001	-5.78298E-007	0.00000E+000	-3.82984E-001	0.00000E+000	7	...........	0
	120	12.1	-3.79890E-001	-4.83606E-007	0.00000E+000	-3.79984E-001	0.00000E+000	7	...........	0
	123	12.4	-3.76987E-001	-4.35592E-007	0.00000E+000	-3.76983E-001	0.00000E+000	7	...........	0
	126	12.7	-3.73984E-001	-3.89913E-007	0.00000E+000	-3.73983E-001	0.00000E+000	7	...........	0
	129	13	-3.70881E-001	-2.82550E-007	0.00000E+000	-3.70983E-001	0.00000E+000	7	...........	0
	132	13.3	-3.67978E-001	-2.89219E-007	0.00000E+000	-3.67983E-001	0.00000E+000	7	...........	0
	135	13.6	-3.64875E-001	-1.93192E-007	0.00000E+000	-3.64983E-001	0.00000E+000	7	...........	0
	138	13.9	-3.61972E-001	-1.52515E-007	0.00000E+000	-3.61983E-001	0.00000E+000	7	...........	0
	141	14.2	-3.58969E-001	-1.56516E-007	0.00000E+000	-3.58983E-001	0.00000E+000	7	...........	0
	144	14.5	-3.55966E-001	-1.49847E-007	0.00000E+000	-3.55983E-001	0.00000E+000	7	...........	0
	147	14.8	-3.53063E-001	-1.07836E-007	0.00000E+000	-3.52982E-001	0.00000E+000	7	...........	0
	150	15.1	-3.49960E-001	-1.20839E-007	0.00000E+000	-3.49982E-001	0.00000E+000	7	...........	0
	153	15.4	-3.46957E-001	-6.21564E-008	0.00000E+000	-3.46982E-001	0.00000E+000	7	...........	0
	156	15.7	-3.43954E-001	1.70333E-006	0.00000E+000	-3.43982E-001	0.00000E+000	7	...........	0
	159	16	-3.40951E-001	1.84437E-006	0.00000E+000	-3.40982E-001	0.00000E+000	7	...........	0
	162	16.3	-3.37948E-001	1.39658E-006	0.00000E+000	-3.37982E-001	0.00000E+000	7	...........	0
	165	16.6	-3.34945E-001	1.08583E-006	0.00000E+000	-3.34982E-001	0.00000E+000	7	...........	0
	168	16.9	-3.31942E-001	9.25782E-007	0.00000E+000	-3.31982E-001	0.00000E+000	7	...........	0
	171	17.2	-3.28939E-001	8.22753E-007	0.00000E+000	-3.28982E-001	0.00000E+000	7	...........	0
	174	17.5	-3.26036E-001	6.96719E-007	0.00000E+000	-3.25981E-001	0.00000E+000	7	...........	0
	177	17.8	-3.22833E-001	6.90384E-007	0.00000E+000	-3.22981E-001	0.00000E+000	7	...........	0
	180	18.1	-3.19930E-001	6.22032E-007	0.00000E+000	-3.19981E-001	0.00000E+000	7	...........	0
	183	18.4	-3.16827E-001	6.40370E-007	0.00000E+000	-3.16981E-001	0.00000E+000	7	...........	0
	186	18.7	-3.13924E-001	5.97025E-007	0.00000E+000	-3.13981E-001	0.00000E+000	7	...........	0
	189	19	-3.10821E-001	5.69350E-007	0.00000E+000	-3.10981E-001	0.00000E+000	7	...........	0
	192	19.3	-3.07918E-001	5.47011E-007	0.00000E+000	-3.07981E-001	0.00000E+000	7	...........	0
	195	19.6	-3.04915E-001	5.35675E-007	0.00000E+000	-3.04981E-001	0.00000E+000	7	...........	0
	198	19.9	-3.01912E-001	5.26672E-007	0.00000E+000	-3.01980E-001	0.00000E+000	7	...........	0
	201	20.2	-2.98909E-001	5.33341E-007	0.00000E+000	-2.98980E-001	0.00000E+000	7	...........	0
	204	20.5	-2.95906E-001	-1.54182E-007	0.00000E+000	-2.95980E-001	0.00000E+000	7	...........	0
	207	20.8	-2.92903E-001	-2.10530E-007	0.00000E+000	-2.92980E-001	0.00000E+000	7	...........	0
	210	21.1	-2.89900E-001	-1.98861E-007	0.00000E+000	-2.89980E-001	0.00000E+000	7	...........	0
	213	21.4	-2.86897E-001	-1.73187E-007	0.00000E+000	-2.86980E-001	0.00000E+000	7	...........	0
	216	21.7	-2.83995E-001	-1.91192E-007	0.00000E+000	-2.83980E-001	0.00000E+000	7	...........	0
	219	22	-2.80791E-001	-1.30508E-007	0.00000E+000	-2.80980E-001	0.00000E+000	7	...........	0
	222	22.3	-2.77888E-001	-9.78328E-008	0.00000E+000	-2.77979E-001	0.00000E+000	7	...........	0
	225	22.6	-2.74886E-001	-8.91638E-008	0.00000E+000	-2.74979E-001	0.00000E+000	7	...........	0
	228	22.9	-2.71883E-001	-7.44931E-008	0.00000E+000	-2.71979E-001	0.00000E+000	7	...........	0
	231	23.2	-2.68880E-001	-6.88249E-008	0.00000E+000	-2.68979E-001	0.00000E+000	7	...........	0
	234	23.5	-2.65877E-001	-6.64909E-008	0.00000E+000	-2.65979E-001	0.00000E+000	7	...........	0
	237	23.8	-2.62974E-001	-6.04892E-008	0.00000E+000	-2.62979E-001	0.00000E+000	7	...........	0
	240	24.1	-2.59770E-001	-3.64826E-008	0.00000E+000	-2.59979E-001	0.00000E+000	7	...........	0
	243	24.4	-2.56868E-001	-6.88249E-008	0.00000E+000	-2.56979E-001	0.00000E+000	7	...........	0
	246	24.7	-2.53764E-001	-5.41542E-008	0.00000E+000	-2.53978E-001	0.00000E+000	7	...........	0
	249	25	-2.50862E-001	-8.74967E-008	0.00000E+000	-2.50978E-001	0.00000E+000	7	...........	0
	252	25.3	-2.47959E-001	-6.81580E-008	0.00000E+000	-2.47978E-001	0.00000E+000	7	...........	0
	255	25.6	-2.44856E-001	1.84904E-006	0.00000E+000	-2.44978E-001	0.00000E+000	7	...........	0
	258	25.9	-2.41863E-001	1.55229E-006	0.00000E+000	-2.41978E-001	0.00000E+000	7	...........	0
	261	26.2	-2.38880E-001	1.26221E-006	0.00000E+000	-2.38978E-001	0.00000E+000	7	...........	0
	264	26.5	-2.35877E-001	1.11383E-006	0.00000E+000	-2.35978E-001	0.00000E+000	7	...........	0
	267	26.8	-2.32874E-001	9.38118E-007	0.00000E+000	-2.32978E-001	0.00000E+000	7	...........	0
	270	27.1	-2.29861E-001	9.17113E-007	0.00000E+000	-2.29977E-001	0.00000E+000	7	...........	0
	273	27.4	-2.26868E-001	8.39091E-007	0.00000E+000	-2.26977E-001	0.00000E+000	7	...........	0
	276	27.7	-2.23855E-001	8.27755E-007	0.00000E+000	-2.23977E-001	0.00000E+000	7	...........	0
	279	28	-2.20862E-001	7.90078E-007	0.00000E+000	-2.20977E-001	0.00000E+000	7	...........	0
	282	28.3	-2.17849E-001	8.54095E-007	0.00000E+000	-2.17977E-001	0.00000E+000	7	...........	0
	285	28.6	-2.14866E-001	8.64765E-007	0.00000E+000	-2.14977E-001	0.00000E+000	7	...........	0
	288	28.9	-2.11873E-001	8.14084E-007	0.00000E+000	-2.11977E-001	0.00000E+000	7	...........	0
	291	29.2	-2.08880E-001	8.19753E-007	0.00000E+000	-2.08977E-001	0.00000E+000	7	...........	0
	294	29.5	-2.05877E-001	7.66738E-007	0.00000E+000	-2.05976E-001	0.00000E+000	7	...........	0
	297	29.8	-2.02874E-001	6.87383E-007	0.00000E+000	-2.02976E-001	0.00000E+000	7	...........	0
	300	30.1	-1.99861E-001	6.82048E-007	0.00000E+000	-1.99976E-001	0.00000E+000	7	...........	0
	303	30.4	-1.96868E-001	1.48568E-007	0.00000E+000	-1.96976E-001	0.00000E+000	7	...........	0
	306	30.7	-1.93855E-001	-1.49180E-007	0.00000E+000	-1.93976E-001	0.00000E+000	7	...........	0
	309	31	-1.90852E-001	-1.16505E-007	0.00000E+000	-1.90976E-001	0.00000E+000	7	...........	0
	312	31.3	-1.87869E-001	-8.54961E-008	0.00000E+000	-1.87976E-001	0.00000E+000	7	...........	0
	315	31.6	-1.84866E-001	-5.94889E-008	0.00000E+000	-1.84976E-001	0.00000E+000	7	...........	0
	318	31.9	-1.81883E-001	-4.71522E-008	0.00000E+000	-1.81975E-001	0.00000E+000	7	...........	0
	321	32.2	-1.78850E-001	2.52809E-009	0.00000E+000	-1.78975E-001	0.00000E+000	7	...........	0
	324	32.5	-1.75877E-001	4.25391E-008	0.00000E+000	-1.75975E-001	0.00000E+000	7	...........	0
	327	32.8	-1.72864E-001	8.68846E-008	0.00000E+000	-1.72975E-001	0.00000E+000	7	...........	0
	330	33.1	-1.69861E-001	8.25501E-008	0.00000E+000	-1.69975E-001	0.00000E+000	7	...........	0
	333	33.4	-1.66949E-001	7.68818E-008	0.00000E+000	-1.67025E-001	0.00000E+000	7	...........	0
	336	33.7	-1.63936E-001	2.98689E-008	0.00000E+000	-1.64025E-001	0.00000E+000	7	...........	0
	339	34	-1.60943E-001	-1.41432E-008	0.00000E+000	-1.61025E-001	0.00000E+000	7	...........	0
	342	34.3	-1.57930E-001	6.52919E-009	0.00000E+000	-1.58025E-001	0.00000E+000	7	...........	0
	345	34.6	-1.54947E-001	-2.11451E-008	0.00000E+000	-1.55024E-001	0.00000E+000	7	...........	0
	348	34.9	-1.51954E-001	4.85407E-008	0.00000E+000	-1.52024E-001	0.00000E+000	7	...........	0
	351	35.2	-1.48951E-001	-3.31484E-008	0.00000E+000	-1.49024E-001	0.00000E+000	7	...........	0
	354	35.5	-1.45968E-001	2.01641E-006	0.00000E+000	-1.46024E-001	0.00000E+000	7	...........	0
	357	35.8	-1.42955E-001	1.63064E-006	0.00000E+000	-1.43024E-001	0.00000E+000	7	...........	0
	360	36.1	-1.39972E-001	1.45093E-006	0.00000E+000	-1.40024E-001	0.00000E+000	7	...........	0
	363	36.4	-1.36949E-001	1.36190E-006	0.00000E+000	-1.37024E-001	0.00000E+000	7	...........	0
	366	36.7	-1.33966E-001	1.26888E-006	0.00000E+000	-1.34024E-001	0.00000E+000	7	...........	0
	369	37	-1.30953E-001	1.23053E-006	0.00000E+000	-1.31023E-001	0.00000E+000	7	...........	0
	372	37.3	-1.27950E-001	1.12617E-006	0.00000E+000	-1.28023E-001	0.00000E+000	7	...........	0
	375	37.6	-1.24967E-001	1.11617E-006	0.00000E+000	-1.25023E-001	0.00000E+000	7	...........	0
	378	37.9	-1.21954E-001	1.08916E-006	0.00000E+000	-1.22023E-001	0.00000E+000	7	...........	0
	381	38.2	-1.18971E-001	1.08282E-006	0.00000E+000	-1.19023E-001	0.00000E+000	7	...........	0
	384	38.5	-1.15968E-001	1.03781E-006	0.00000E+000	-1.16023E-001	0.00000E+000	7	...........	0
	387	38.8	-1.12945E-001	1.08016E-006	0.00000E+000	-1.13023E-001	0.00000E+000	7	...........	0
	390	39.1	-1.09962E-001	1.09449E-006	0.00000E+000	-1.10023E-001	0.00000E+000	7	...........	0
	393	39.4	-1.06969E-001	1.02014E-006	0.00000E+000	-1.07022E-001	0.00000E+000	7	...........	0
	396	39.7	-1.03986E-001	1.04715E-006	0.00000E+000	-1.04022E-001	0.00000E+000	7	...........	0
	399	40	-1.00973E-001	1.01481E-006	0.00000E+000	-1.01022E-001	0.00000E+000	7	...........	0
	402	40.3	-9.79799E-002	1.02881E-006	0.00000E+000	-9.80221E-002	0.00000E+000	7	...........	0
	405	40.6	-9.49569E-002	-2.34870E-007	0.00000E+000	-9.50219E-002	0.00000E+000	7	...........	0
	408	40.9	-9.19739E-002	-1.60183E-007	0.00000E+000	-9.20218E-002	0.00000E+000	7	...........	0
	411	41.2	-8.89609E-002	-1.19839E-007	0.00000E+000	-8.90217E-002	0.00000E+000	7	...........	0
	414	41.5	-8.59680E-002	-9.88331E-008	0.00000E+000	-8.60216E-002	0.00000E+000	7	...........	0
	417	41.8	-8.29650E-002	-7.41596E-008	0.00000E+000	-8.30214E-002	0.00000E+000	7	...........	0
	420	42.1	-7.99620E-002	-5.88221E-008	0.00000E+000	-8.00213E-002	0.00000E+000	7	...........	0
	423	42.4	-7.69690E-002	-6.71577E-008	0.00000E+000	-7.70212E-002	0.00000E+000	7	...........	0
	426	42.7	-7.39660E-002	-4.81525E-008	0.00000E+000	-7.40211E-002	0.00000E+000	7	...........	0
	429	43	-7.09830E-002	-6.61575E-008	0.00000E+000	-7.10210E-002	0.00000E+000	7	...........	0
	432	43.3	-6.79600E-002	-2.91473E-008	0.00000E+000	-6.80208E-002	0.00000E+000	7	...........	0
	435	43.6	-6.49671E-002	-2.51462E-008	0.00000E+000	-6.50207E-002	0.00000E+000	7	...........	0
	438	43.9	-6.19541E-002	-5.24870E-008	0.00000E+000	-6.20206E-002	0.00000E+000	7	...........	0
	441	44.2	-5.89711E-002	3.19494E-009	0.00000E+000	-5.90205E-002	0.00000E+000	7	...........	0
	444	44.5	-5.59781E-002	1.75322E-008	0.00000E+000	-5.60203E-002	0.00000E+000	7	...........	0
	447	44.8	-5.29751E-002	-1.11423E-008	0.00000E+000	-5.30202E-002	0.00000E+000	7	...........	0
	450	45.1	-4.99621E-002	-4.14041E-009	0.00000E+000	-5.00201E-002	0.00000E+000	7	...........	0
	453	45.4	-4.69491E-002	1.15306E-008	0.00000E+000	-4.70200E-002	0.00000E+000	7	...........	0
	456	45.7	-4.39661E-002	2.50055E-006	0.00000E+000	-4.40199E-002	0.00000E+000	7	...........	0
	459	46	-4.09732E-002	2.08177E-006	0.00000E+000	-4.10197E-002	0.00000E+000	7	...........	0
	462	46.3	-3.79602E-002	1.93306E-006	0.00000E+000	-3.80196E-002	0.00000E+000	7	...........	0
	465	46.6	-3.49572E-002	1.90105E-006	0.00000E+000	-3.50195E-002	0.00000E+000	7	...........	0
	468	46.9	-3.19542E-002	1.77168E-006	0.00000E+000	-3.20194E-002	0.00000E+000	7	...........	0
	471	47.2	-2.89712E-002	1.79402E-006	0.00000E+000	-2.90192E-002	0.00000E+000	7	...........	0
	474	47.5	-2.59482E-002	1.75534E-006	0.00000E+000	-2.60191E-002	0.00000E+000	7	...........	0
	477	47.8	-2.29490E-002	1.78302E-006	0.00000E+000	-2.30190E-002	0.00000E+000	7	...........	0
	480	48.1	-1.99400E-002	1.84303E-006	0.00000E+000	-2.00189E-002	0.00000E+000	7	...........	0
	483	48.4	-1.69450E-002	1.79335E-006	0.00000E+000	-1.70187E-002	0.00000E+000	7	...........	0
	486	48.7	-1.39530E-002	1.71133E-006	0.00000E+000	-1.40186E-002	0.00000E+000	7	...........	0
	489	49	-1.09651E-002	1.75601E-006	0.00000E+000	-1.10185E-002	0.00000E+000	7	...........	0
	492	49.3	-7.96808E-003	1.68932E-006	0.00000E+000	-8.01838E-003	0.00000E+000	7	...........	0
	495	49.6	-4.96109E-003	1.78969E-006	0.00000E+000	-5.01826E-003	0.00000E+000	7	...........	0
	498	49.9	-1.99113E-003	1.78502E-006	0.00000E+000	-2.01814E-003	0.00000E+000	7	...........	0
	501	50.2	1.02087E-003	1.84870E-006	0.00000E+000	9.81987E-004	0.00000E+000	7	...........	0
	504	50.5	4.02786E-003	-2.88885E-007	0.00000E+000	3.98211E-003	0.00000E+000	7	...........	0
	507	50.8	7.02384E-003	-1.26841E-007	0.00000E+000	6.98223E-003	0.00000E+000	7	...........	0
	510	51.1	1.00298E-002	-6.84914E-008	0.00000E+000	9.98235E-003	0.00000E+000	7	...........	0
	513	51.4	1.30348E-002	-1.24760E-008	0.00000E+000	1.29825E-002	0.00000E+000	7	...........	0
	516	51.7	1.60318E-002	-2.11451E-008	0.00000E+000	1.59826E-002	0.00000E+000	7	...........	0
	519	52	1.90258E-002	2.72015E-008	0.00000E+000	1.89827E-002	0.00000E+000	7	...........	0
	522	52.3	2.20118E-002	-2.38125E-008	0.00000E+000	2.19828E-002	0.00000E+000	7	...........	0
	525	52.6	2.50157E-002	1.95328E-008	0.00000E+000	2.49830E-002	0.00000E+000	7	...........	0
	528	52.9	2.80555E-002	1.68654E-008	0.00000E+000	2.79831E-002	0.00000E+000	7	...........	0
	531	53.2	3.10285E-002	4.52864E-009	0.00000E+000	3.09832E-002	0.00000E+000	7	...........	0
	534	53.5	3.40415E-002	3.85380E-008	0.00000E+000	3.39833E-002	0.00000E+000	7	...........	0
	537	53.8	3.70245E-002	1.25308E-008	0.00000E+000	3.69835E-002	0.00000E+000	7	...........	0
	540	54.1	4.00475E-002	6.15443E-008	0.00000E+000	3.99836E-002	0.00000E+000	7	...........	0
	543	54.4	4.30204E-002	4.25391E-008	0.00000E+000	4.29837E-002	0.00000E+000	7	...........	0
	546	54.7	4.60334E-002	4.65402E-008	0.00000E+000	4.59838E-002	0.00000E+000	7	...........	0
	549	55	4.90364E-002	4.45396E-008	0.00000E+000	4.89840E-002	0.00000E+000	7	...........	0
	552	55.3	5.20294E-002	5.88769E-008	0.00000E+000	5.19841E-002	0.00000E+000	7	...........	0
	555	55.6	5.50224E-002	3.39613E-006	0.00000E+000	5.49842E-002	0.00000E+000	7	...........	0
	558	55.9	5.80354E-002	3.02369E-006	0.00000E+000	5.79843E-002	0.00000E+000	7	...........	0
	561	56.2	6.10484E-002	2.90433E-006	0.00000E+000	6.09844E-002	0.00000E+000	7	...........	0
	564	56.5	6.40313E-002	3.00169E-006	0.00000E+000	6.39846E-002	0.00000E+000	7	...........	0
	567	56.8	6.70243E-002	3.01235E-006	0.00000E+000	6.69847E-002	0.00000E+000	7	...........	0
	570	57.1	7.00173E-002	3.01702E-006	0.00000E+000	6.99848E-002	0.00000E+000	7	...........	0
	573	57.4	7.30203E-002	2.95367E-006	0.00000E+000	7.29849E-002	0.00000E+000	7	...........	0
	576	57.7	7.60333E-002	2.79563E-006	0.00000E+000	7.59851E-002	0.00000E+000	7	...........	0
	579	58	7.90263E-002	2.90366E-006	0.00000E+000	7.89852E-002	0.00000E+000	7	...........	0
	582	58.3	8.20193E-002	2.93033E-006	0.00000E+000	8.19853E-002	0.00000E+000	7	...........	0
	585	58.6	8.50222E-002	2.90132E-006	0.00000E+000	8.49854E-002	0.00000E+000	7	...........	0
	588	58.9	8.80152E-002	2.90132E-006	0.00000E+000	8.79855E-002	0.00000E+000	7	...........	0
	591	59.2	9.10282E-002	2.76229E-006	0.00000E+000	9.09857E-002	0.00000E+000	7	...........	0
	594	59.5	9.40112E-002	2.76395E-006	0.00000E+000	9.39858E-002	0.00000E+000	7	...........	0
	597	59.8	9.70342E-002	2.75295E-006	0.00000E+000	9.69859E-002	0.00000E+000	7	...........	0
	600	60.1	1.00007E-001	2.76329E-006	0.00000E+000	9.99860E-002	0.00000E+000	7	...........	0
	603	60.4	1.03030E-001	-7.93024E-007	0.00000E+000	1.02986E-001	0.00000E+000	7	...........	0
	606	60.7	1.06043E-001	-3.43567E-007	0.00000E+000	1.05986E-001	0.00000E+000	7	...........	0
	609	61	1.09036E-001	-2.26868E-007	0.00000E+000	1.08986E-001	0.00000E+000	7	...........	0
	612	61.3	1.12049E-001	-1.55849E-007	0.00000E+000	1.11987E-001	0.00000E+000	7	...........	0
	615	61.6	1.15032E-001	-9.71660E-008	0.00000E+000	1.14987E-001	0.00000E+000	7	...........	0
	618	61.9	1.18035E-001	-4.38180E-008	0.00000E+000	1.17987E-001	0.00000E+000	7	...........	0
	621	62.2	1.21028E-001	2.22002E-008	0.00000E+000	1.20987E-001	0.00000E+000	7	...........	0
	624	62.5	1.24021E-001	4.25391E-008	0.00000E+000	1.23987E-001	0.00000E+000	7	...........	0
	627	62.8	1.27014E-001	1.68654E-008	0.00000E+000	1.26987E-001	0.00000E+000	7	...........	0
	630	63.1	1.30017E-001	4.32059E-008	0.00000E+000	1.29987E-001	0.00000E+000	7	...........	0
	633	63.4	1.33020E-001	-3.14014E-009	0.00000E+000	1.32987E-001	0.00000E+000	7	...........	0
	636	63.7	1.36013E-001	1.98662E-008	0.00000E+000	1.35988E-001	0.00000E+000	7	...........	0
	639	64	1.39036E-001	6.86261E-009	0.00000E+000	1.38988E-001	0.00000E+000	7	...........	0
	642	64.3	1.42019E-001	5.85435E-008	0.00000E+000	1.41988E-001	0.00000E+000	7	...........	0
	645	64.6	1.45022E-001	4.35394E-008	0.00000E+000	1.44988E-001	0.00000E+000	7	...........	0
	648	64.9	1.48015E-001	3.68709E-008	0.00000E+000	1.47988E-001	0.00000E+000	7	...........	0
	651	65.2	1.50998E-001	6.15443E-008	0.00000E+000	1.50988E-001	0.00000E+000	7	...........	0
	654	65.5	1.54021E-001	3.78711E-008	0.00000E+000	1.53988E-001	0.00000E+000	7	...........	0
	657	65.8	1.57024E-001	6.02818E-006	0.00000E+000	1.56988E-001	0.00000E+000	7	...........	0
	660	66.1	1.60027E-001	4.88920E-006	0.00000E+000	1.59988E-001	0.00000E+000	7	...........	0
	663	66.4	1.63020E-001	4.51410E-006	0.00000E+000	1.62989E-001	0.00000E+000	7	...........	0
	666	66.7	1.66003E-001	4.19001E-006	0.00000E+000	1.65989E-001	0.00000E+000	7	...........	0
	669	67	1.69026E-001	4.19635E-006	0.00000E+000	1.68989E-001	0.00000E+000	7	...........	0
	672	67.3	1.72009E-001	3.92327E-006	0.00000E+000	1.71989E-001	0.00000E+000	7	...........	0
	675	67.6	1.75022E-001	3.84492E-006	0.00000E+000	1.74989E-001	0.00000E+000	7	...........	0
	678	67.9	1.78025E-001	3.74556E-006	0.00000E+000	1.77989E-001	0.00000E+000	7	...........	0
	681	68.2	1.81018E-001	3.76590E-006	0.00000E+000	1.80989E-001	0.00000E+000	7	...........	0
	684	68.5	1.84001E-001	3.76823E-006	0.00000E+000	1.83989E-001	0.00000E+000	7	...........	0
	687	68.8	1.87014E-001	3.96428E-006	0.00000E+000	1.86990E-001	0.00000E+000	7	...........	0
	690	69.1	1.89997E-001	4.23102E-006	0.00000E+000	1.89990E-001	0.00000E+000	7	...........	0
	693	69.4	1.93010E-001	4.15400E-006	0.00000E+000	1.92990E-001	0.00000E+000	7	...........	0
	696	69.7	1.96033E-001	3.96228E-006	0.00000E+000	1.95990E-001	0.00000E+000	7	...........	0
	699	70	1.99006E-001	3.72322E-006	0.00000E+000	1.98990E-001	0.00000E+000	7	...........	0
	702	70.3	2.01999E-001	-1.28483E-006	0.00000E+000	2.01990E-001	0.00000E+000	7	...........	0
	705	70.6	2.05012E-001	-6.91996E-007	0.00000E+000	2.04990E-001	0.00000E+000	7	...........	0
	708	70.9	2.08025E-001	-4.59932E-007	0.00000E+000	2.07990E-001	0.00000E+000	7	...........	0
	711	71.2	2.11048E-001	-3.51569E-007	0.00000E+000	2.10991E-001	0.00000E+000	7	...........	0
	714	71.5	2.14031E-001	-2.83551E-007	0.00000E+000	2.13991E-001	0.00000E+000	7	...........	0
	717	71.8	2.17014E-001	-2.29869E-007	0.00000E+000	2.16991E-001	0.00000E+000	7	...........	0
	720	72.1	2.20027E-001	-1.55182E-007	0.00000E+000	2.19991E-001	0.00000E+000	7	...........	0
	723	72.4	2.23040E-001	-8.84969E-008	0.00000E+000	2.22991E-001	0.00000E+000	7	...........	0
	726	72.7	2.26003E-001	-9.64991E-008	0.00000E+000	2.25991E-001	0.00000E+000	7	...........	0
	729	73	2.29006E-001	-3.91500E-008	0.00000E+000	2.28991E-001	0.00000E+000	7	...........	0
	732	73.3	2.32019E-001	-3.84832E-008	0.00000E+000	2.31991E-001	0.00000E+000	7	...........	0
	735	73.6	2.35012E-001	-1.41432E-008	0.00000E+000	2.34992E-001	0.00000E+000	7	...........	0
	738	73.9	2.38005E-001	-4.08172E-008	0.00000E+000	2.37992E-001	0.00000E+000	7	...........	0
	741	74.2	2.41018E-001	-6.47439E-009	0.00000E+000	2.40992E-001	0.00000E+000	7	...........	0
	744	74.5	2.44010E-001	-4.21509E-008	0.00000E+000	2.43992E-001	0.00000E+000	7	...........	0
	747	74.8	2.47023E-001	1.58651E-008	0.00000E+000	2.46992E-001	0.00000E+000	7	...........	0
	750	75.1	2.49996E-001	1.19439E-009	0.00000E+000	2.49992E-001	0.00000E+000	7	...........	0
	753	75.4	2.53009E-001	-1.38097E-008	0.00000E+000	2.52992E-001	0.00000E+000	7	...........	0
	756	75.7	2.55952E-001	6.51265E-006	0.00000E+000	2.55992E-001	0.00000E+000	7	...........	0
	759	76	2.58955E-001	5.96950E-006	0.00000E+000	2.58993E-001	0.00000E+000	7	...........	0
	762	76.3	2.61968E-001	5.54438E-006	0.00000E+000	2.61993E-001	0.00000E+000	7	...........	0
	765	76.6	2.64971E-001	5.44769E-006	0.00000E+000	2.64993E-001	0.00000E+000	7	...........	0
	768	76.9	2.68155E-001	5.28898E-006	0.00000E+000	2.67993E-001	0.00000E+000	7	...........	0
	771	77.2	2.71058E-001	5.22996E-006	0.00000E+000	2.70993E-001	0.00000E+000	7	...........	0
	774	77.5	2.74061E-001	5.15694E-006	0.00000E+000	2.73993E-001	0.00000E+000	7	...........	0
	777	77.8	2.77064E-001	5.27098E-006	0.00000E+000	2.76993E-001	0.00000E+000	7	...........	0
	780	78.1	2.80167E-001	5.23530E-006	0.00000E+000	2.79993E-001	0.00000E+000	7	...........	0
	783	78.4	2.83170E-001	5.19696E-006	0.00000E+000	2.82993E-001	0.00000E+000	7	...........	0
	786	78.7	2.86173E-001	5.24063E-006	0.00000E+000	2.85994E-001	0.00000E+000	7	...........	0
	789	79	2.89176E-001	5.31732E-006	0.00000E+000	2.88994E-001	0.00000E+000	7	...........	0
	792	79.3	2.92079E-001	5.30298E-006	0.00000E+000	2.91994E-001	0.00000E+000	7	...........	0
	795	79.6	2.95182E-001	5.63174E-006	0.00000E+000	2.94994E-001	0.00000E+000	7	...........	0
	798	79.9	2.98085E-001	5.77178E-006	0.00000E+000	2.97994E-001	0.00000E+000	7	...........	0
	801	80.2	3.01188E-001	5.69743E-006	0.00000E+000	3.00994E-001	0.00000E+000	7	...........	0
	804	80.5	3.04191E-001	5.65275E-006	0.00000E+000	3.03994E-001	0.00000E+000	7	...........	0
	807	80.8	3.07194E-001	-1.16513E-006	0.00000E+000	3.06994E-001	0.00000E+000	7	...........	0
	810	81.1	3.10097E-001	-7.32674E-007	0.00000E+000	3.09995E-001	0.00000E+000	7	...........	0
	813	81.4	3.13100E-001	-5.33619E-007	0.00000E+000	3.12995E-001	0.00000E+000	7	...........	0
	816	81.7	3.16103E-001	-4.26256E-007	0.00000E+000	3.15995E-001	0.00000E+000	7	...........	0
	819	82	3.19206E-001	-3.19227E-007	0.00000E+000	3.18995E-001	0.00000E+000	7	...........	0
	822	82.3	3.22109E-001	-2.30536E-007	0.00000E+000	3.21995E-001	0.00000E+000	7	...........	0
	825	82.6	3.25112E-001	-2.14865E-007	0.00000E+000	3.24995E-001	0.00000E+000	7	...........	0
	828	82.9	3.28115E-001	-1.68185E-007	0.00000E+000	3.27995E-001	0.00000E+000	7	...........	0
	831	83.2	3.31118E-001	-9.74994E-008	0.00000E+000	3.30995E-001	0.00000E+000	7	...........	0
	834	83.5	3.34121E-001	-1.08169E-007	0.00000E+000	3.33996E-001	0.00000E+000	7	...........	0
	837	83.8	3.37224E-001	-6.98251E-008	0.00000E+000	3.36996E-001	0.00000E+000	7	...........	0
	840	84.1	3.40227E-001	1.38645E-008	0.00000E+000	3.39996E-001	0.00000E+000	7	...........	0
	843	84.4	3.43130E-001	-4.68188E-008	0.00000E+000	3.42996E-001	0.00000E+000	7	...........	0
	846	84.7	3.46133E-001	-5.47411E-009	0.00000E+000	3.45996E-001	0.00000E+000	7	...........	0
	849	85	3.49136E-001	3.02024E-008	0.00000E+000	3.48996E-001	0.00000E+000	7	...........	0
	852	85.3	3.52239E-001	1.11971E-008	0.00000E+000	3.51996E-001	0.00000E+000	7	...........	0
	855	85.6	3.55142E-001	8.52254E-006	0.00000E+000	3.54996E-001	0.00000E+000	8	...........	0
	858	85.9	3.58145E-001	7.47913E-006	0.00000E+000	3.57997E-001	0.00000E+000	8	...........	0
	861	86.2	3.61148E-001	7.02579E-006	0.00000E+000	3.60997E-001	0.00000E+000	7	...........	0
	864	86.5	3.64151E-001	6.82874E-006	0.00000E+000	3.63997E-001	0.00000E+000	7	...........	0
	867	86.8	3.67254E-001	6.68903E-006	0.00000E+000	3.66997E-001	0.00000E+000	7	...........	0
	870	87.1	3.70257E-001	6.78906E-006	0.00000E+000	3.69997E-001	0.00000E+000	7	...........	0
	873	87.4	3.73059E-001	6.62568E-006	0.00000E+000	3.72997E-001	0.00000E+000	7	...........	0
	876	87.7	3.76162E-001	6.67303E-006	0.00000E+000	3.75997E-001	0.00000E+000	7	...........	0
	879	88	3.79266E-001	6.66369E-006	0.00000E+000	3.78997E-001	0.00000E+000	7	...........	0
	882	88.3	3.82169E-001	6.69470E-006	0.00000E+000	3.81998E-001	0.00000E+000	7	...........	0
	885	88.6	3.85071E-001	6.79606E-006	0.00000E+000	3.84998E-001	0.00000E+000	7	...........	0
	888	88.9	3.88174E-001	6.71504E-006	0.00000E+000	3.87998E-001	0.00000E+000	7	...........	0
	891	89.2	3.91177E-001	6.72838E-006	0.00000E+000	3.90998E-001	0.00000E+000	7	...........	0
	894	89.5	3.94180E-001	6.77239E-006	0.00000E+000	3.93998E-001	0.00000E+000	7	...........	0
	897	89.8	3.97183E-001	6.88842E-006	0.00000E+000	3.96998E-001	0.00000E+000	7	...........	0
	900	90.1	4.00186E-001	7.07114E-006	0.00000E+000	3.99998E-001	0.00000E+000	7	...........	0
	903	90.4	4.03189E-001	-1.37885E-006	0.00000E+000	4.02998E-001	0.00000E+000	7	...........	0
	906	90.7	4.06192E-001	-9.16391E-007	0.00000E+000	4.05999E-001	0.00000E+000	7	...........	0
	909	91	4.09095E-001	-6.87328E-007	0.00000E+000	4.08999E-001	0.00000E+000	7	...........	0
	912	91.3	4.12198E-001	-4.94275E-007	0.00000E+000	4.11999E-001	0.00000E+000	7	...........	0
	915	91.6	4.15201E-001	-3.73575E-007	0.00000E+000	4.14999E-001	0.00000E+000	7	...........	0
	918	91.9	4.18204E-001	-3.61572E-007	0.00000E+000	4.17999E-001	0.00000E+000	7	...........	0
	921	92.2	4.21207E-001	-2.87885E-007	0.00000E+000	4.20999E-001	0.00000E+000	7	...........	0
	924	92.5	4.24210E-001	-2.44873E-007	0.00000E+000	4.23999E-001	0.00000E+000	7	...........	0
	927	92.8	4.27213E-001	-2.42873E-007	0.00000E+000	4.26999E-001	0.00000E+000	7	...........	0
	930	93.1	4.30116E-001	-1.86190E-007	0.00000E+000	4.30000E-001	0.00000E+000	7	...........	0
	933	93.4	4.33219E-001	-1.22506E-007	0.00000E+000	4.33000E-001	0.00000E+000	7	...........	0
	936	93.7	4.36322E-001	-1.05835E-007	0.00000E+000	4.36000E-001	0.00000E+000	7	...........	0
	939	94	4.39125E-001	-1.10503E-007	0.00000E+000	4.39000E-001	0.00000E+000	7	...........	0
	942	94.3	4.42228E-001	-3.48155E-008	0.00000E+000	4.42000E-001	0.00000E+000	7	...........	0
	945	94.6	4.45131E-001	-8.21618E-008	0.00000E+000	4.45000E-001	0.00000E+000	7	...........	0
	948	94.9	4.48234E-001	-7.14923E-008	0.00000E+000	4.48000E-001	0.00000E+000	7	...........	0
	951	95.2	4.51237E-001	-5.01531E-008	0.00000E+000	4.51000E-001	0.00000E+000	7	...........	0
	954	95.5	4.54140E-001	1.01547E-006	0.00000E+000	4.54001E-001	0.00000E+000	7	...........	0
	957	95.8	4.57143E-001	1.07994E-005	0.00000E+000	4.57001E-001	0.00000E+000	8	...........	0
	960	96.1	4.60146E-001	1.00826E-005	0.00000E+000	4.60001E-001	0.00000E+000	8	...........	0
	963	96.4	4.63249E-001	9.78262E-006	0.00000E+000	4.63001E-001	0.00000E+000	8	...........	0
	966	96.7	4.66252E-001	9.74595E-006	0.00000E+000	4.66001E-001	0.00000E+000	8	...........	0
	969	97	4.69155E-001	9.33259E-006	0.00000E+000	4.69001E-001	0.00000E+000	8	...........	0
	972	97.3	4.72158E-001	8.99924E-006	0.00000E+000	4.72001E-001	0.00000E+000	8	...........	0
	975	97.6	4.75161E-001	9.07257E-006	0.00000E+000	4.75001E-001	0.00000E+000	8	...........	0
	978	97.9	4.78164E-001	9.03590E-006	0.00000E+000	4.78001E-001	0.00000E+000	8	...........	0
	981	98.2	4.81167E-001	9.26259E-006	0.00000E+000	4.81002E-001	0.00000E+000	8	...........	0
	984	98.5	4.84170E-001	9.37259E-006	0.00000E+000	4.84002E-001	0.00000E+000	8	...........	0
	987	98.8	4.87173E-001	9.58928E-006	0.00000E+000	4.87002E-001	0.00000E+000	8	...........	0
	990	99.1	4.90176E-001	9.99597E-006	0.00000E+000	4.90002E-001	0.00000E+000	8	...........	0
	993	99.4	4.93179E-001	1.01360E-005	0.00000E+000	4.93002E-001	0.00000E+000	8	...........	0
	996	99.7	4.96282E-001	1.03860E-005	0.00000E+000	4.96002E-001	0.00000E+000	8	...........	0
	999	100	4.99085E-001	9.98264E-006	0.00000E+000	4.99002E-001	0.00000E+000	8	...........	0
	1002	100.3	5.02288E-001	1.03027E-005	0.00000E+000	5.02002E-001	0.00000E+000	8	...........	0
	1005	100.6	5.05291E-001	-7.78687E-007	0.00000E+000	5.05003E-001	0.00000E+000	7	...........	0
	1008	100.9	5.08194E-001	-5.32952E-007	0.00000E+000	5.08003E-001	0.00000E+000	7	...........	0
	1011	101.2	5.11097E-001	-3.45234E-007	0.00000E+000	5.11003E-001	0.00000E+000	7	...........	0
	1014	101.5	5.14200E-001	-2.35204E-007	0.00000E+000	5.14003E-001	0.00000E+000	7	...........	0
	1017	101.8	5.17103E-001	-1.39844E-007	0.00000E+000	5.17003E-001	0.00000E+000	7	...........	0
	1020	102.1	5.20206E-001	-1.16171E-007	0.00000E+000	5.20003E-001	0.00000E+000	7	...........	0
	1023	102.4	5.23209E-001	-3.91500E-008	0.00000E+000	5.23003E-001	0.00000E+000	7	...........	0
	1026	102.7	5.26212E-001	-1.18092E-008	0.00000E+000	5.26003E-001	0.00000E+000	7	...........	0
	1029	103	5.29315E-001	5.05413E-008	0.00000E+000	5.29004E-001	0.00000E+000	7	...........	0
	1032	103.3	5.32218E-001	5.58761E-008	0.00000E+000	5.32004E-001	0.00000E+000	7	...........	0
	1035	103.6	5.35221E-001	9.62205E-008	0.00000E+000	5.35004E-001	0.00000E+000	7	...........	0
	1038	103.9	5.38324E-001	1.51236E-007	0.00000E+000	5.38004E-001	0.00000E+000	7	...........	0
	1041	104.2	5.41227E-001	1.51236E-007	0.00000E+000	5.41004E-001	0.00000E+000	7	...........	0
	1044	104.5	5.44230E-001	1.87246E-007	0.00000E+000	5.44004E-001	0.00000E+000	7	...........	0
	1047	104.8	5.47233E-001	2.25256E-007	0.00000E+000	5.47004E-001	0.00000E+000	7	...........	0
	1050	105.1	5.50236E-001	2.66934E-007	0.00000E+000	5.50004E-001	0.00000E+000	7	...........	0
	1053	105.4	5.53239E-001	3.38287E-007	0.00000E+000	5.53005E-001	0.00000E+000	7	...........	0
	1056	105.7	5.56242E-001	1.35062E-005	0.00000E+000	5.56005E-001	0.00000E+000	8	...........	0
	1059	106	5.59245E-001	1.28295E-005	0.00000E+000	5.59005E-001	0.00000E+000	8	...........	0
	1062	106.3	5.62148E-001	1.26962E-005	0.00000E+000	5.62005E-001	0.00000E+000	8	...........	0
	1065	106.6	5.65151E-001	1.25528E-005	0.00000E+000	5.65005E-001	0.00000E+000	8	...........	0
	1068	106.9	5.68254E-001	1.25295E-005	0.00000E+000	5.68005E-001	0.00000E+000	8	...........	0
	1071	107.2	5.71257E-001	1.26828E-005	0.00000E+000	5.71005E-001	0.00000E+000	8	...........	0
	1074	107.5	5.74260E-001	1.25528E-005	0.00000E+000	5.74005E-001	0.00000E+000	8	...........	0
	1077	107.8	5.77263E-001	1.25295E-005	0.00000E+000	5.77006E-001	0.00000E+000	8	...........	0
	1080	108.1	5.80266E-001	1.29395E-005	0.00000E+000	5.80006E-001	0.00000E+000	8	...........	0
	1083	108.4	5.83269E-001	1.28295E-005	0.00000E+000	5.83006E-001	0.00000E+000	8	...........	0
	1086	108.7	5.86272E-001	1.24361E-005	0.00000E+000	5.86006E-001	0.00000E+000	8	...........	0
	1089	109	5.89275E-001	1.22928E-005	0.00000E+000	5.89006E-001	0.00000E+000	8	...........	0
	1092	109.3	5.92178E-001	1.22861E-005	0.00000E+000	5.92006E-001	0.00000E+000	8	...........	0
	1095	109.6	5.95281E-001	1.24161E-005	0.00000E+000	5.95006E-001	0.00000E+000	8	...........	0
	1098	109.9	5.98184E-001	1.26395E-005	0.00000E+000	5.98006E-001	0.00000E+000	8	...........	0
	1100	110.1	6.00286E-001	1.36629E-005	0.00000E+000	6.00006E-001	0.00000E+000	8	...........	0