File: LSV ZFO/ZFO_h400_light_reator.DTA
EXPLAIN
TAG	LSV
TITLE	LABEL	Linear Sweep Voltammetry	Test &Identifier
DATE	LABEL	7/5/2024	Date
TIME	LABEL	17:31:35	Time
NOTES	NOTES	1	&Notes...

PSTAT	PSTAT	L3FNano	Potentiostat
VINIT	POTEN	-5.00000E-001	F	&Initial E (V)
VFINAL	POTEN	6.00000E-001	F	&Final E (V)
SCANRATE	QUANT	9.99998E+000	&Scan Rate (mV/s)
STEPSIZE	QUANT	1.00000E+000	St&ep Size (mV)
IMODE	SELECTOR	0	I/E Range &Mode
IRANGE	QUANT	1.00000E+001	&Max Current (mA)
AREA	QUANT	1.00000E+000	Electrode &Area (cm^2)
ELECTRODETYPE	SELECTOR	0	Electrode Type
STRIPPING	TOGGLE	F	Used for Stripping
POLARITY	TOGGLE	F	Signal Polarity
CONDIT	TWOPARAM	F	1.50000E+001	0.00000E+000	Conditionin&g	Time(s)	E(V)
DELAY	TWOPARAM	F	3.00000E+001	0.00000E+000	Init. De&lay	Time(s)	Stab.(mV/s)
EQDELAY	QUANT	5.00000E+000	Equil. &Time (s)
IRCOMP	SELECTOR	0	IRCom&p
PFCOR	QUANT	5.00000E+001	PF Corr. (ohm)
SAMPLINGMODE	SELECTOR	0	Sampling &Mode
EOC	QUANT	0	Open Circuit (V)
PSTATMODEL	IQUANT	48	Pstat Model
PSTATSECTION	LABEL	IFC1000-07082	Pstat Section
PSTATSERIALNO	LABEL	07082	Pstat Serial Number
CTRLMODE	IQUANT	1	Control Mode
IESTAB	IQUANT	2	I/E Stability
CASPEED	IQUANT	2	Control Amp Speed
CONVENTION	IQUANT	1	Current Convention
ICHRANGE	IQUANT	2	Ich Range
ICHRANGEMODE	TOGGLE	F	Ich Auto Range
ICHOFFSETENABLE	TOGGLE	F	Ich Offset Enable
ICHOFFSET	QUANT	0	Ich Offset (V)
ICHFILTER	IQUANT	3	Ich Filter
VCHRANGE	IQUANT	2	Vch Range
VCHRANGEMODE	TOGGLE	T	Vch Auto Range
VCHOFFSETENABLE	TOGGLE	F	Vch Offset Enable
VCHOFFSET	QUANT	0	Vch Offset (V)
VCHFILTER	IQUANT	3	Vch Filter
IERANGELOWERLIMIT	IQUANT	4	I/E Range Lower Limit
IERANGEMODE	TOGGLE	T	I/E AutoRange
IERANGE	IQUANT	11	I/E Range
ACHSELECT	IQUANT	4	Ach Select
CABLEID	IQUANT	14	Cable ID
DCCALDATE	LABEL	7/3/2024	DC Calibration Date
ACCALDATE	LABEL	7/3/2024	AC Calibration Date
FRAMEWORKVERSION	QUANT	6.24	Framework Version
INSTRUMENTVERSION	LABEL	3.28	Instrument Version
CURVE	TABLE	1101
	Pt	T	Vf	Im	Vu	Sig	Ach	IERange	Over	Cycle
	#	s	V vs. Ref.	A	V	V	V	#	bits	#
	0	0.1	-5.00110E-001	-1.13719E-005	0.00000E+000	-4.99988E-001	0.00000E+000	11	...........	0
	3	0.4	-4.97107E-001	-1.42624E-005	0.00000E+000	-4.96988E-001	0.00000E+000	8	...........	0
	6	0.7	-4.94104E-001	-1.34923E-005	0.00000E+000	-4.93988E-001	0.00000E+000	8	...........	0
	9	1	-4.91101E-001	-1.29156E-005	0.00000E+000	-4.90988E-001	0.00000E+000	8	...........	0
	12	1.3	-4.88098E-001	-1.23289E-005	0.00000E+000	-4.87988E-001	0.00000E+000	8	...........	0
	15	1.6	-4.85095E-001	-1.14989E-005	0.00000E+000	-4.84988E-001	0.00000E+000	8	...........	0
	18	1.9	-4.82092E-001	-1.08688E-005	0.00000E+000	-4.81988E-001	0.00000E+000	8	...........	0
	21	2.2	-4.78989E-001	-1.02421E-005	0.00000E+000	-4.78988E-001	0.00000E+000	8	...........	0
	24	2.5	-4.76086E-001	-9.82541E-006	0.00000E+000	-4.75987E-001	0.00000E+000	8	...........	0
	27	2.8	-4.72983E-001	-9.19203E-006	0.00000E+000	-4.72987E-001	0.00000E+000	8	...........	0
	30	3.1	-4.69980E-001	-8.77534E-006	0.00000E+000	-4.69987E-001	0.00000E+000	8	...........	0
	33	3.4	-4.66977E-001	-8.57866E-006	0.00000E+000	-4.66987E-001	0.00000E+000	8	...........	0
	36	3.7	-4.64074E-001	-8.84590E-006	0.00000E+000	-4.63987E-001	0.00000E+000	7	...........	0
	39	4	-4.61071E-001	-8.43312E-006	0.00000E+000	-4.60987E-001	0.00000E+000	7	...........	0
	42	4.3	-4.57968E-001	-8.07602E-006	0.00000E+000	-4.57987E-001	0.00000E+000	7	...........	0
	45	4.6	-4.55065E-001	-7.83029E-006	0.00000E+000	-4.54987E-001	0.00000E+000	7	...........	0
	48	4.9	-4.52062E-001	-7.36250E-006	0.00000E+000	-4.51987E-001	0.00000E+000	7	...........	0
	51	5.2	-4.49059E-001	-7.03907E-006	0.00000E+000	-4.48986E-001	0.00000E+000	7	...........	0
	54	5.5	-4.46056E-001	-6.65330E-006	0.00000E+000	-4.45986E-001	0.00000E+000	7	...........	0
	57	5.8	-4.43153E-001	-6.46892E-006	0.00000E+000	-4.42986E-001	0.00000E+000	7	...........	0
	60	6.1	-4.40050E-001	-6.22585E-006	0.00000E+000	-4.39986E-001	0.00000E+000	7	...........	0
	63	6.4	-4.37047E-001	-5.85475E-006	0.00000E+000	-4.36986E-001	0.00000E+000	7	...........	0
	66	6.7	-4.34044E-001	-5.64202E-006	0.00000E+000	-4.33986E-001	0.00000E+000	7	...........	0
	69	7	-4.31041E-001	-5.33661E-006	0.00000E+000	-4.30986E-001	0.00000E+000	7	...........	0
	72	7.3	-4.28038E-001	-5.19257E-006	0.00000E+000	-4.27986E-001	0.00000E+000	7	...........	0
	75	7.6	-4.25035E-001	-4.97717E-006	0.00000E+000	-4.24985E-001	0.00000E+000	7	...........	0
	78	7.9	-4.21932E-001	-4.71410E-006	0.00000E+000	-4.21985E-001	0.00000E+000	7	...........	0
	81	8.2	-4.19029E-001	-4.43602E-006	0.00000E+000	-4.18985E-001	0.00000E+000	7	...........	0
	84	8.5	-4.16126E-001	-4.16895E-006	0.00000E+000	-4.15985E-001	0.00000E+000	7	...........	0
	87	8.8	-4.12923E-001	-4.03425E-006	0.00000E+000	-4.12985E-001	0.00000E+000	7	...........	0
	90	9.1	-4.10020E-001	-3.83819E-006	0.00000E+000	-4.09985E-001	0.00000E+000	7	...........	0
	93	9.4	-4.07117E-001	-3.64447E-006	0.00000E+000	-4.06985E-001	0.00000E+000	7	...........	0
	96	9.7	-4.04014E-001	-3.46776E-006	0.00000E+000	-4.03985E-001	0.00000E+000	7	...........	0
	99	10	-4.01011E-001	-3.35539E-006	0.00000E+000	-4.00984E-001	0.00000E+000	7	...........	0
	102	10.3	-3.98008E-001	-3.10733E-006	0.00000E+000	-3.97984E-001	0.00000E+000	7	...........	0
	105	10.6	-3.95105E-001	-3.04598E-006	0.00000E+000	-3.94984E-001	0.00000E+000	7	...........	0
	108	10.9	-3.92102E-001	-2.86259E-006	0.00000E+000	-3.91984E-001	0.00000E+000	7	...........	0
	111	11.2	-3.88999E-001	-2.66787E-006	0.00000E+000	-3.88984E-001	0.00000E+000	7	...........	0
	114	11.5	-3.86096E-001	-2.43814E-006	0.00000E+000	-3.85984E-001	0.00000E+000	7	...........	0
	117	11.8	-3.82993E-001	-2.28977E-006	0.00000E+000	-3.82984E-001	0.00000E+000	7	...........	0
	120	12.1	-3.79990E-001	-2.06804E-006	0.00000E+000	-3.79984E-001	0.00000E+000	7	...........	0
	123	12.4	-3.77087E-001	-1.89133E-006	0.00000E+000	-3.76983E-001	0.00000E+000	7	...........	0
	126	12.7	-3.73984E-001	-1.64259E-006	0.00000E+000	-3.73983E-001	0.00000E+000	7	...........	0
	129	13	-3.71081E-001	-1.60658E-006	0.00000E+000	-3.70983E-001	0.00000E+000	7	...........	0
	132	13.3	-3.67878E-001	-1.32817E-006	0.00000E+000	-3.67983E-001	0.00000E+000	7	...........	0
	135	13.6	-3.64975E-001	-1.30116E-006	0.00000E+000	-3.64983E-001	0.00000E+000	7	...........	0
	138	13.9	-3.61972E-001	-1.12378E-006	0.00000E+000	-3.61983E-001	0.00000E+000	7	...........	0
	141	14.2	-3.59069E-001	-8.75713E-007	0.00000E+000	-3.58983E-001	0.00000E+000	7	...........	0
	144	14.5	-3.56166E-001	-8.16364E-007	0.00000E+000	-3.55983E-001	0.00000E+000	7	...........	0
	147	14.8	-3.52963E-001	-6.69990E-007	0.00000E+000	-3.52982E-001	0.00000E+000	7	...........	0
	150	15.1	-3.49960E-001	-7.07000E-007	0.00000E+000	-3.49982E-001	0.00000E+000	7	...........	0
	153	15.4	-3.46957E-001	-5.97303E-007	0.00000E+000	-3.46982E-001	0.00000E+000	7	...........	0
	156	15.7	-3.44054E-001	-3.59238E-007	0.00000E+000	-3.43982E-001	0.00000E+000	7	...........	0
	159	16	-3.41151E-001	-3.49235E-007	0.00000E+000	-3.40982E-001	0.00000E+000	7	...........	0
	162	16.3	-3.38048E-001	-4.15587E-007	0.00000E+000	-3.37982E-001	0.00000E+000	7	...........	0
	165	16.6	-3.35045E-001	-3.82911E-007	0.00000E+000	-3.34982E-001	0.00000E+000	7	...........	0
	168	16.9	-3.31942E-001	-2.11531E-007	0.00000E+000	-3.31982E-001	0.00000E+000	7	...........	0
	171	17.2	-3.29039E-001	-1.19839E-007	0.00000E+000	-3.28982E-001	0.00000E+000	7	...........	0
	174	17.5	-3.26036E-001	-1.84523E-007	0.00000E+000	-3.25981E-001	0.00000E+000	7	...........	0
	177	17.8	-3.23033E-001	-2.94807E-008	0.00000E+000	-3.22981E-001	0.00000E+000	7	...........	0
	180	18.1	-3.20030E-001	1.77243E-007	0.00000E+000	-3.19981E-001	0.00000E+000	7	...........	0
	183	18.4	-3.17027E-001	2.30591E-007	0.00000E+000	-3.16981E-001	0.00000E+000	7	...........	0
	186	18.7	-3.14125E-001	4.45650E-007	0.00000E+000	-3.13981E-001	0.00000E+000	7	...........	0
	189	19	-3.11122E-001	5.93357E-007	0.00000E+000	-3.10981E-001	0.00000E+000	7	...........	0
	192	19.3	-3.08018E-001	6.53707E-007	0.00000E+000	-3.07981E-001	0.00000E+000	7	...........	0
	195	19.6	-3.04815E-001	8.29089E-007	0.00000E+000	-3.04981E-001	0.00000E+000	7	...........	0
	198	19.9	-3.02013E-001	1.14051E-006	0.00000E+000	-3.01980E-001	0.00000E+000	7	...........	0
	201	20.2	-2.99010E-001	1.36824E-006	0.00000E+000	-2.98980E-001	0.00000E+000	7	...........	0
	204	20.5	-2.96007E-001	1.50194E-006	0.00000E+000	-2.95980E-001	0.00000E+000	7	...........	0
	207	20.8	-2.93004E-001	1.59763E-006	0.00000E+000	-2.92980E-001	0.00000E+000	7	...........	0
	210	21.1	-2.89900E-001	1.81169E-006	0.00000E+000	-2.89980E-001	0.00000E+000	7	...........	0
	213	21.4	-2.86998E-001	1.94840E-006	0.00000E+000	-2.86980E-001	0.00000E+000	7	...........	0
	216	21.7	-2.83995E-001	1.73700E-006	0.00000E+000	-2.83980E-001	0.00000E+000	7	...........	0
	219	22	-2.80992E-001	1.94106E-006	0.00000E+000	-2.80980E-001	0.00000E+000	7	...........	0
	222	22.3	-2.77989E-001	1.77068E-006	0.00000E+000	-2.77979E-001	0.00000E+000	7	...........	0
	225	22.6	-2.74986E-001	1.99107E-006	0.00000E+000	-2.74979E-001	0.00000E+000	7	...........	0
	228	22.9	-2.71983E-001	1.94706E-006	0.00000E+000	-2.71979E-001	0.00000E+000	7	...........	0
	231	23.2	-2.68980E-001	2.03242E-006	0.00000E+000	-2.68979E-001	0.00000E+000	7	...........	0
	234	23.5	-2.65977E-001	2.26182E-006	0.00000E+000	-2.65979E-001	0.00000E+000	7	...........	0
	237	23.8	-2.63074E-001	2.50622E-006	0.00000E+000	-2.62979E-001	0.00000E+000	7	...........	0
	240	24.1	-2.59871E-001	2.42253E-006	0.00000E+000	-2.59979E-001	0.00000E+000	7	...........	0
	243	24.4	-2.56968E-001	2.47421E-006	0.00000E+000	-2.56979E-001	0.00000E+000	7	...........	0
	246	24.7	-2.54065E-001	2.50255E-006	0.00000E+000	-2.53978E-001	0.00000E+000	7	...........	0
	249	25	-2.51062E-001	2.67493E-006	0.00000E+000	-2.50978E-001	0.00000E+000	7	...........	0
	252	25.3	-2.47959E-001	2.78663E-006	0.00000E+000	-2.47978E-001	0.00000E+000	7	...........	0
	255	25.6	-2.44956E-001	2.89132E-006	0.00000E+000	-2.44978E-001	0.00000E+000	7	...........	0
	258	25.9	-2.42013E-001	3.20007E-006	0.00000E+000	-2.41978E-001	0.00000E+000	7	...........	0
	261	26.2	-2.38970E-001	3.12705E-006	0.00000E+000	-2.38978E-001	0.00000E+000	7	...........	0
	264	26.5	-2.35957E-001	3.30810E-006	0.00000E+000	-2.35978E-001	0.00000E+000	7	...........	0
	267	26.8	-2.32974E-001	3.45981E-006	0.00000E+000	-2.32978E-001	0.00000E+000	7	...........	0
	270	27.1	-2.29951E-001	3.49582E-006	0.00000E+000	-2.29977E-001	0.00000E+000	7	...........	0
	273	27.4	-2.26988E-001	3.39113E-006	0.00000E+000	-2.26977E-001	0.00000E+000	7	...........	0
	276	27.7	-2.23965E-001	3.38479E-006	0.00000E+000	-2.23977E-001	0.00000E+000	7	...........	0
	279	28	-2.20982E-001	3.75189E-006	0.00000E+000	-2.20977E-001	0.00000E+000	7	...........	0
	282	28.3	-2.17989E-001	3.98095E-006	0.00000E+000	-2.17977E-001	0.00000E+000	7	...........	0
	285	28.6	-2.14906E-001	4.19935E-006	0.00000E+000	-2.14977E-001	0.00000E+000	7	...........	0
	288	28.9	-2.11993E-001	4.16367E-006	0.00000E+000	-2.11977E-001	0.00000E+000	7	...........	0
	291	29.2	-2.09000E-001	4.18768E-006	0.00000E+000	-2.08977E-001	0.00000E+000	7	...........	0
	294	29.5	-2.05977E-001	4.36773E-006	0.00000E+000	-2.05976E-001	0.00000E+000	7	...........	0
	297	29.8	-2.02964E-001	4.19935E-006	0.00000E+000	-2.02976E-001	0.00000E+000	7	...........	0
	300	30.1	-1.99951E-001	4.10199E-006	0.00000E+000	-1.99976E-001	0.00000E+000	7	...........	0
	303	30.4	-1.97018E-001	4.12466E-006	0.00000E+000	-1.96976E-001	0.00000E+000	7	...........	0
	306	30.7	-1.93985E-001	4.20568E-006	0.00000E+000	-1.93976E-001	0.00000E+000	7	...........	0
	309	31	-1.90962E-001	3.82625E-006	0.00000E+000	-1.90976E-001	0.00000E+000	7	...........	0
	312	31.3	-1.87980E-001	3.81024E-006	0.00000E+000	-1.87976E-001	0.00000E+000	7	...........	0
	315	31.6	-1.85017E-001	3.96962E-006	0.00000E+000	-1.84976E-001	0.00000E+000	7	...........	0
	318	31.9	-1.81974E-001	3.98529E-006	0.00000E+000	-1.81975E-001	0.00000E+000	7	...........	0
	321	32.2	-1.78951E-001	4.06831E-006	0.00000E+000	-1.78975E-001	0.00000E+000	7	...........	0
	324	32.5	-1.75968E-001	4.44241E-006	0.00000E+000	-1.75975E-001	0.00000E+000	7	...........	0
	327	32.8	-1.73005E-001	4.11999E-006	0.00000E+000	-1.72975E-001	0.00000E+000	7	...........	0
	330	33.1	-1.69992E-001	4.28004E-006	0.00000E+000	-1.69975E-001	0.00000E+000	7	...........	0
	333	33.4	-1.67049E-001	4.15267E-006	0.00000E+000	-1.67025E-001	0.00000E+000	7	...........	0
	336	33.7	-1.64046E-001	4.19135E-006	0.00000E+000	-1.64025E-001	0.00000E+000	7	...........	0
	339	34	-1.61033E-001	4.41441E-006	0.00000E+000	-1.61025E-001	0.00000E+000	7	...........	0
	342	34.3	-1.58060E-001	4.34505E-006	0.00000E+000	-1.58025E-001	0.00000E+000	7	...........	0
	345	34.6	-1.55047E-001	4.29237E-006	0.00000E+000	-1.55024E-001	0.00000E+000	7	...........	0
	348	34.9	-1.52064E-001	4.62080E-006	0.00000E+000	-1.52024E-001	0.00000E+000	7	...........	0
	351	35.2	-1.49071E-001	4.58745E-006	0.00000E+000	-1.49024E-001	0.00000E+000	7	...........	0
	354	35.5	-1.46088E-001	4.75583E-006	0.00000E+000	-1.46024E-001	0.00000E+000	7	...........	0
	357	35.8	-1.43025E-001	4.52010E-006	0.00000E+000	-1.43024E-001	0.00000E+000	7	...........	0
	360	36.1	-1.40092E-001	4.50210E-006	0.00000E+000	-1.40024E-001	0.00000E+000	7	...........	0
	363	36.4	-1.37099E-001	4.65914E-006	0.00000E+000	-1.37024E-001	0.00000E+000	7	...........	0
	366	36.7	-1.34076E-001	5.03825E-006	0.00000E+000	-1.34024E-001	0.00000E+000	7	...........	0
	369	37	-1.31073E-001	5.45603E-006	0.00000E+000	-1.31023E-001	0.00000E+000	7	...........	0
	372	37.3	-1.28080E-001	5.74110E-006	0.00000E+000	-1.28023E-001	0.00000E+000	7	...........	0
	375	37.6	-1.25077E-001	5.50337E-006	0.00000E+000	-1.25023E-001	0.00000E+000	7	...........	0
	378	37.9	-1.22084E-001	5.72810E-006	0.00000E+000	-1.22023E-001	0.00000E+000	7	...........	0
	381	38.2	-1.19081E-001	5.65541E-006	0.00000E+000	-1.19023E-001	0.00000E+000	7	...........	0
	384	38.5	-1.16068E-001	5.83846E-006	0.00000E+000	-1.16023E-001	0.00000E+000	7	...........	0
	387	38.8	-1.13085E-001	6.20490E-006	0.00000E+000	-1.13023E-001	0.00000E+000	7	...........	0
	390	39.1	-1.10072E-001	6.12388E-006	0.00000E+000	-1.10023E-001	0.00000E+000	7	...........	0
	393	39.4	-1.07079E-001	6.04185E-006	0.00000E+000	-1.07022E-001	0.00000E+000	7	...........	0
	396	39.7	-1.04096E-001	6.17289E-006	0.00000E+000	-1.04022E-001	0.00000E+000	7	...........	0
	399	40	-1.01103E-001	5.79279E-006	0.00000E+000	-1.01022E-001	0.00000E+000	7	...........	0
	402	40.3	-9.81000E-002	5.54505E-006	0.00000E+000	-9.80221E-002	0.00000E+000	7	...........	0
	405	40.6	-9.50870E-002	5.21429E-006	0.00000E+000	-9.50219E-002	0.00000E+000	7	...........	0
	408	40.9	-9.21241E-002	5.55205E-006	0.00000E+000	-9.20218E-002	0.00000E+000	7	...........	0
	411	41.2	-8.91211E-002	5.51871E-006	0.00000E+000	-8.90217E-002	0.00000E+000	7	...........	0
	414	41.5	-8.60580E-002	5.92049E-006	0.00000E+000	-8.60216E-002	0.00000E+000	7	...........	0
	417	41.8	-8.30450E-002	6.17056E-006	0.00000E+000	-8.30214E-002	0.00000E+000	7	...........	0
	420	42.1	-8.00921E-002	6.63368E-006	0.00000E+000	-8.00213E-002	0.00000E+000	7	...........	0
	423	42.4	-7.70491E-002	6.49231E-006	0.00000E+000	-7.70212E-002	0.00000E+000	7	...........	0
	426	42.7	-7.41162E-002	6.60301E-006	0.00000E+000	-7.40211E-002	0.00000E+000	7	...........	0
	429	43	-7.10931E-002	6.54399E-006	0.00000E+000	-7.10210E-002	0.00000E+000	7	...........	0
	432	43.3	-6.80902E-002	6.60934E-006	0.00000E+000	-6.80208E-002	0.00000E+000	7	...........	0
	435	43.6	-6.50772E-002	6.67369E-006	0.00000E+000	-6.50207E-002	0.00000E+000	7	...........	0
	438	43.9	-6.20742E-002	6.74105E-006	0.00000E+000	-6.20206E-002	0.00000E+000	7	...........	0
	441	44.2	-5.91413E-002	6.63268E-006	0.00000E+000	-5.90205E-002	0.00000E+000	7	...........	0
	444	44.5	-5.60782E-002	6.14488E-006	0.00000E+000	-5.60203E-002	0.00000E+000	7	...........	0
	447	44.8	-5.30952E-002	5.79812E-006	0.00000E+000	-5.30202E-002	0.00000E+000	7	...........	0
	450	45.1	-5.01123E-002	5.40501E-006	0.00000E+000	-5.00201E-002	0.00000E+000	7	...........	0
	453	45.4	-4.70792E-002	5.46303E-006	0.00000E+000	-4.70200E-002	0.00000E+000	7	...........	0
	456	45.7	-4.40963E-002	5.48403E-006	0.00000E+000	-4.40199E-002	0.00000E+000	7	...........	0
	459	46	-4.10833E-002	5.93616E-006	0.00000E+000	-4.10197E-002	0.00000E+000	7	...........	0
	462	46.3	-3.81303E-002	6.38361E-006	0.00000E+000	-3.80196E-002	0.00000E+000	7	...........	0
	465	46.6	-3.51073E-002	5.70243E-006	0.00000E+000	-3.50195E-002	0.00000E+000	7	...........	0
	468	46.9	-3.21444E-002	5.81246E-006	0.00000E+000	-3.20194E-002	0.00000E+000	7	...........	0
	471	47.2	-2.91013E-002	5.62641E-006	0.00000E+000	-2.90192E-002	0.00000E+000	7	...........	0
	474	47.5	-2.60683E-002	6.04219E-006	0.00000E+000	-2.60191E-002	0.00000E+000	7	...........	0
	477	47.8	-2.30791E-002	5.91682E-006	0.00000E+000	-2.30190E-002	0.00000E+000	7	...........	0
	480	48.1	-2.00731E-002	6.36194E-006	0.00000E+000	-2.00189E-002	0.00000E+000	7	...........	0
	483	48.4	-1.71342E-002	6.96377E-006	0.00000E+000	-1.70187E-002	0.00000E+000	7	...........	0
	486	48.7	-1.40641E-002	6.92343E-006	0.00000E+000	-1.40186E-002	0.00000E+000	7	...........	0
	489	49	-1.10822E-002	6.60468E-006	0.00000E+000	-1.10185E-002	0.00000E+000	7	...........	0
	492	49.3	-8.08419E-003	7.11882E-006	0.00000E+000	-8.01838E-003	0.00000E+000	7	...........	0
	495	49.6	-5.10723E-003	7.24052E-006	0.00000E+000	-5.01826E-003	0.00000E+000	7	...........	0
	498	49.9	-2.14028E-003	7.29353E-006	0.00000E+000	-2.01814E-003	0.00000E+000	7	...........	0
	501	50.2	9.24773E-004	7.31454E-006	0.00000E+000	9.81987E-004	0.00000E+000	7	...........	0
	504	50.5	3.93577E-003	7.52093E-006	0.00000E+000	3.98211E-003	0.00000E+000	7	...........	0
	507	50.8	6.91173E-003	7.47458E-006	0.00000E+000	6.98223E-003	0.00000E+000	7	...........	0
	510	51.1	9.92974E-003	6.38728E-006	0.00000E+000	9.98235E-003	0.00000E+000	7	...........	0
	513	51.4	1.29247E-002	6.06386E-006	0.00000E+000	1.29825E-002	0.00000E+000	7	...........	0
	516	51.7	1.58797E-002	6.13621E-006	0.00000E+000	1.59826E-002	0.00000E+000	7	...........	0
	519	52	1.89227E-002	6.05319E-006	0.00000E+000	1.89827E-002	0.00000E+000	7	...........	0
	522	52.3	2.19017E-002	6.40895E-006	0.00000E+000	2.19828E-002	0.00000E+000	7	...........	0
	525	52.6	2.48996E-002	6.49164E-006	0.00000E+000	2.49830E-002	0.00000E+000	7	...........	0
	528	52.9	2.79354E-002	6.28625E-006	0.00000E+000	2.79831E-002	0.00000E+000	7	...........	0
	531	53.2	3.09484E-002	6.50198E-006	0.00000E+000	3.09832E-002	0.00000E+000	7	...........	0
	534	53.5	3.39314E-002	6.87542E-006	0.00000E+000	3.39833E-002	0.00000E+000	7	...........	0
	537	53.8	3.69544E-002	7.70164E-006	0.00000E+000	3.69835E-002	0.00000E+000	7	...........	0
	540	54.1	3.99774E-002	8.16244E-006	0.00000E+000	3.99836E-002	0.00000E+000	7	...........	0
	543	54.4	4.29303E-002	8.15810E-006	0.00000E+000	4.29837E-002	0.00000E+000	7	...........	0
	546	54.7	4.59534E-002	8.49086E-006	0.00000E+000	4.59838E-002	0.00000E+000	7	...........	0
	549	55	4.89063E-002	8.72559E-006	0.00000E+000	4.89840E-002	0.00000E+000	7	...........	0
	552	55.3	5.19393E-002	8.77527E-006	0.00000E+000	5.19841E-002	0.00000E+000	7	...........	0
	555	55.6	5.49123E-002	9.25474E-006	0.00000E+000	5.49842E-002	0.00000E+000	7	...........	0
	558	55.9	5.79353E-002	9.12437E-006	0.00000E+000	5.79843E-002	0.00000E+000	7	...........	0
	561	56.2	6.09183E-002	9.30208E-006	0.00000E+000	6.09844E-002	0.00000E+000	7	...........	0
	564	56.5	6.39713E-002	9.41912E-006	0.00000E+000	6.39846E-002	0.00000E+000	7	...........	0
	567	56.8	6.69142E-002	9.17138E-006	0.00000E+000	6.69847E-002	0.00000E+000	7	...........	0
	570	57.1	6.99372E-002	9.06935E-006	0.00000E+000	6.99848E-002	0.00000E+000	7	...........	0
	573	57.4	7.29703E-002	8.26346E-006	0.00000E+000	7.29849E-002	0.00000E+000	7	.....h.....	0
	576	57.7	7.59732E-002	8.14743E-006	0.00000E+000	7.59851E-002	0.00000E+000	7	.....h.....	0
	579	58	7.89462E-002	7.66530E-006	0.00000E+000	7.89852E-002	0.00000E+000	7	.....h.....	0
	582	58.3	8.19392E-002	6.97243E-006	0.00000E+000	8.19853E-002	0.00000E+000	8	...........	0
	585	58.6	8.49322E-002	7.75915E-006	0.00000E+000	8.49854E-002	0.00000E+000	8	...........	0
	588	58.9	8.79151E-002	7.88582E-006	0.00000E+000	8.79855E-002	0.00000E+000	8	...........	0
	591	59.2	9.09381E-002	8.72922E-006	0.00000E+000	9.09857E-002	0.00000E+000	8	...........	0
	594	59.5	9.39411E-002	9.48260E-006	0.00000E+000	9.39858E-002	0.00000E+000	8	...........	0
	597	59.8	9.69541E-002	1.01130E-005	0.00000E+000	9.69859E-002	0.00000E+000	7	...........	0
	600	60.1	9.99371E-002	9.09403E-006	0.00000E+000	9.99860E-002	0.00000E+000	7	.....h.....	0
	603	60.4	1.02960E-001	8.66057E-006	0.00000E+000	1.02986E-001	0.00000E+000	7	.....h.....	0
	606	60.7	1.05953E-001	9.22740E-006	0.00000E+000	1.05986E-001	0.00000E+000	7	.....h.....	0
	609	61	1.08976E-001	8.21845E-006	0.00000E+000	1.08986E-001	0.00000E+000	7	.....h.....	0
	612	61.3	1.11959E-001	9.01500E-006	0.00000E+000	1.11987E-001	0.00000E+000	7	.....h.....	0
	615	61.6	1.14972E-001	8.98300E-006	0.00000E+000	1.14987E-001	0.00000E+000	7	.....h.....	0
	618	61.9	1.17945E-001	8.86863E-006	0.00000E+000	1.17987E-001	0.00000E+000	7	.....h.....	0
	621	62.2	1.20948E-001	8.59322E-006	0.00000E+000	1.20987E-001	0.00000E+000	7	.....h.....	0
	624	62.5	1.23911E-001	7.69915E-006	0.00000E+000	1.23987E-001	0.00000E+000	8	...........	0
	627	62.8	1.26924E-001	7.60247E-006	0.00000E+000	1.26987E-001	0.00000E+000	8	...........	0
	630	63.1	1.29897E-001	7.49913E-006	0.00000E+000	1.29987E-001	0.00000E+000	8	...........	0
	633	63.4	1.32920E-001	7.70915E-006	0.00000E+000	1.32987E-001	0.00000E+000	8	...........	0
	636	63.7	1.35943E-001	7.86249E-006	0.00000E+000	1.35988E-001	0.00000E+000	8	...........	0
	639	64	1.38916E-001	8.23252E-006	0.00000E+000	1.38988E-001	0.00000E+000	8	...........	0
	642	64.3	1.41929E-001	8.32252E-006	0.00000E+000	1.41988E-001	0.00000E+000	8	...........	0
	645	64.6	1.44952E-001	8.31919E-006	0.00000E+000	1.44988E-001	0.00000E+000	8	...........	0
	648	64.9	1.47965E-001	8.36919E-006	0.00000E+000	1.47988E-001	0.00000E+000	8	...........	0
	651	65.2	1.50958E-001	8.17585E-006	0.00000E+000	1.50988E-001	0.00000E+000	8	...........	0
	654	65.5	1.53941E-001	7.89249E-006	0.00000E+000	1.53988E-001	0.00000E+000	8	...........	0
	657	65.8	1.56934E-001	8.63588E-006	0.00000E+000	1.56988E-001	0.00000E+000	8	...........	0
	660	66.1	1.59947E-001	9.53927E-006	0.00000E+000	1.59988E-001	0.00000E+000	8	...........	0
	663	66.4	1.62920E-001	8.94590E-006	0.00000E+000	1.62989E-001	0.00000E+000	8	...........	0
	666	66.7	1.65903E-001	1.04927E-005	0.00000E+000	1.65989E-001	0.00000E+000	8	...........	0
	669	67	1.68976E-001	1.09265E-005	0.00000E+000	1.68989E-001	0.00000E+000	7	....ih..i..	0
	672	67.3	1.71909E-001	9.39260E-006	0.00000E+000	1.71989E-001	0.00000E+000	8	...........	0
	675	67.6	1.74902E-001	9.17925E-006	0.00000E+000	1.74989E-001	0.00000E+000	8	...........	0
	678	67.9	1.77905E-001	9.43593E-006	0.00000E+000	1.77989E-001	0.00000E+000	8	...........	0
	681	68.2	1.80938E-001	9.05257E-006	0.00000E+000	1.80989E-001	0.00000E+000	8	...........	0
	684	68.5	1.83931E-001	9.29259E-006	0.00000E+000	1.83989E-001	0.00000E+000	8	...........	0
	687	68.8	1.86934E-001	1.02160E-005	0.00000E+000	1.86990E-001	0.00000E+000	8	...........	0
	690	69.1	1.89927E-001	8.92590E-006	0.00000E+000	1.89990E-001	0.00000E+000	8	...........	0
	693	69.4	1.92960E-001	9.36593E-006	0.00000E+000	1.92990E-001	0.00000E+000	8	...........	0
	696	69.7	1.95953E-001	9.65928E-006	0.00000E+000	1.95990E-001	0.00000E+000	8	...........	0
	699	70	1.98906E-001	9.13924E-006	0.00000E+000	1.98990E-001	0.00000E+000	8	...........	0
	702	70.3	2.01929E-001	9.00590E-006	0.00000E+000	2.01990E-001	0.00000E+000	8	...........	0
	705	70.6	2.04942E-001	9.38260E-006	0.00000E+000	2.04990E-001	0.00000E+000	8	...........	0
	708	70.9	2.07895E-001	1.02593E-005	0.00000E+000	2.07990E-001	0.00000E+000	8	...........	0
	711	71.2	2.10918E-001	9.58928E-006	0.00000E+000	2.10991E-001	0.00000E+000	8	...........	0
	714	71.5	2.13961E-001	9.62595E-006	0.00000E+000	2.13991E-001	0.00000E+000	8	...........	0
	717	71.8	2.16944E-001	9.10924E-006	0.00000E+000	2.16991E-001	0.00000E+000	8	...........	0
	720	72.1	2.19907E-001	9.53261E-006	0.00000E+000	2.19991E-001	0.00000E+000	8	...........	0
	723	72.4	2.22919E-001	9.57928E-006	0.00000E+000	2.22991E-001	0.00000E+000	8	...........	0
	726	72.7	2.25963E-001	1.06427E-005	0.00000E+000	2.25991E-001	0.00000E+000	8	...........	0
	729	73	2.28945E-001	1.28128E-005	0.00000E+000	2.28991E-001	0.00000E+000	8	...........	0
	732	73.3	2.31938E-001	1.30562E-005	0.00000E+000	2.31991E-001	0.00000E+000	8	...........	0
	735	73.6	2.34931E-001	1.32495E-005	0.00000E+000	2.34992E-001	0.00000E+000	8	...........	0
	738	73.9	2.37914E-001	1.34129E-005	0.00000E+000	2.37992E-001	0.00000E+000	8	...........	0
	741	74.2	2.40937E-001	1.35396E-005	0.00000E+000	2.40992E-001	0.00000E+000	8	...........	0
	744	74.5	2.43940E-001	1.31895E-005	0.00000E+000	2.43992E-001	0.00000E+000	8	...........	0
	747	74.8	2.46943E-001	1.25662E-005	0.00000E+000	2.46992E-001	0.00000E+000	8	...........	0
	750	75.1	2.49916E-001	1.33195E-005	0.00000E+000	2.49992E-001	0.00000E+000	8	...........	0
	753	75.4	2.52919E-001	1.29628E-005	0.00000E+000	2.52992E-001	0.00000E+000	8	...........	0
	756	75.7	2.55862E-001	1.37962E-005	0.00000E+000	2.55992E-001	0.00000E+000	8	...........	0
	759	76	2.58855E-001	1.37762E-005	0.00000E+000	2.58993E-001	0.00000E+000	8	...........	0
	762	76.3	2.61868E-001	1.40129E-005	0.00000E+000	2.61993E-001	0.00000E+000	8	...........	0
	765	76.6	2.64871E-001	1.43763E-005	0.00000E+000	2.64993E-001	0.00000E+000	8	...........	0
	768	76.9	2.68055E-001	1.41329E-005	0.00000E+000	2.67993E-001	0.00000E+000	8	...........	0
	771	77.2	2.71058E-001	1.36096E-005	0.00000E+000	2.70993E-001	0.00000E+000	8	...........	0
	774	77.5	2.74061E-001	1.34762E-005	0.00000E+000	2.73993E-001	0.00000E+000	8	...........	0
	777	77.8	2.77064E-001	1.44896E-005	0.00000E+000	2.76993E-001	0.00000E+000	8	...........	0
	780	78.1	2.80067E-001	1.30128E-005	0.00000E+000	2.79993E-001	0.00000E+000	8	...........	0
	783	78.4	2.83070E-001	1.23761E-005	0.00000E+000	2.82993E-001	0.00000E+000	8	...........	0
	786	78.7	2.85973E-001	1.16994E-005	0.00000E+000	2.85994E-001	0.00000E+000	8	...........	0
	789	79	2.89076E-001	1.12827E-005	0.00000E+000	2.88994E-001	0.00000E+000	8	...........	0
	792	79.3	2.91979E-001	1.17161E-005	0.00000E+000	2.91994E-001	0.00000E+000	8	...........	0
	795	79.6	2.95182E-001	1.19494E-005	0.00000E+000	2.94994E-001	0.00000E+000	8	...........	0
	798	79.9	2.98185E-001	1.41663E-005	0.00000E+000	2.97994E-001	0.00000E+000	8	...........	0
	801	80.2	3.01088E-001	1.36996E-005	0.00000E+000	3.00994E-001	0.00000E+000	8	...........	0
	804	80.5	3.03991E-001	1.40629E-005	0.00000E+000	3.03994E-001	0.00000E+000	8	...........	0
	807	80.8	3.07094E-001	1.39596E-005	0.00000E+000	3.06994E-001	0.00000E+000	8	...........	0
	810	81.1	3.10097E-001	1.60064E-005	0.00000E+000	3.09995E-001	0.00000E+000	8	...........	0
	813	81.4	3.13000E-001	1.70331E-005	0.00000E+000	3.12995E-001	0.00000E+000	8	...........	0
	816	81.7	3.16003E-001	1.65698E-005	0.00000E+000	3.15995E-001	0.00000E+000	8	...........	0
	819	82	3.19106E-001	1.72665E-005	0.00000E+000	3.18995E-001	0.00000E+000	8	...........	0
	822	82.3	3.22109E-001	1.72231E-005	0.00000E+000	3.21995E-001	0.00000E+000	8	...........	0
	825	82.6	3.25112E-001	1.72598E-005	0.00000E+000	3.24995E-001	0.00000E+000	8	...........	0
	828	82.9	3.28115E-001	1.67631E-005	0.00000E+000	3.27995E-001	0.00000E+000	8	...........	0
	831	83.2	3.31018E-001	1.48430E-005	0.00000E+000	3.30995E-001	0.00000E+000	8	...........	0
	834	83.5	3.34121E-001	1.32895E-005	0.00000E+000	3.33996E-001	0.00000E+000	8	...........	0
	837	83.8	3.37124E-001	1.29495E-005	0.00000E+000	3.36996E-001	0.00000E+000	8	...........	0
	840	84.1	3.40027E-001	1.30495E-005	0.00000E+000	3.39996E-001	0.00000E+000	8	...........	0
	843	84.4	3.43130E-001	1.32429E-005	0.00000E+000	3.42996E-001	0.00000E+000	8	...........	0
	846	84.7	3.46033E-001	1.39229E-005	0.00000E+000	3.45996E-001	0.00000E+000	8	...........	0
	849	85	3.49136E-001	1.52730E-005	0.00000E+000	3.48996E-001	0.00000E+000	8	...........	0
	852	85.3	3.52139E-001	1.82866E-005	0.00000E+000	3.51996E-001	0.00000E+000	8	...........	0
	855	85.6	3.55142E-001	1.84299E-005	0.00000E+000	3.54996E-001	0.00000E+000	8	...........	0
	858	85.9	3.58044E-001	1.85266E-005	0.00000E+000	3.57997E-001	0.00000E+000	8	...........	0
	861	86.2	3.61047E-001	1.88533E-005	0.00000E+000	3.60997E-001	0.00000E+000	8	...........	0
	864	86.5	3.64151E-001	1.84766E-005	0.00000E+000	3.63997E-001	0.00000E+000	8	...........	0
	867	86.8	3.67154E-001	1.86999E-005	0.00000E+000	3.66997E-001	0.00000E+000	8	...........	0
	870	87.1	3.70157E-001	1.82999E-005	0.00000E+000	3.69997E-001	0.00000E+000	8	...........	0
	873	87.4	3.73160E-001	1.77832E-005	0.00000E+000	3.72997E-001	0.00000E+000	8	...........	0
	876	87.7	3.76162E-001	1.73532E-005	0.00000E+000	3.75997E-001	0.00000E+000	8	...........	0
	879	88	3.79065E-001	1.68498E-005	0.00000E+000	3.78997E-001	0.00000E+000	8	...........	0
	882	88.3	3.82169E-001	1.97600E-005	0.00000E+000	3.81998E-001	0.00000E+000	8	...........	0
	885	88.6	3.85171E-001	2.00833E-005	0.00000E+000	3.84998E-001	0.00000E+000	8	...........	0
	888	88.9	3.88174E-001	2.01167E-005	0.00000E+000	3.87998E-001	0.00000E+000	8	...........	0
	891	89.2	3.91077E-001	1.85432E-005	0.00000E+000	3.90998E-001	0.00000E+000	8	...........	0
	894	89.5	3.94080E-001	1.62364E-005	0.00000E+000	3.93998E-001	0.00000E+000	8	...........	0
	897	89.8	3.97083E-001	1.55864E-005	0.00000E+000	3.96998E-001	0.00000E+000	8	...........	0
	900	90.1	4.00186E-001	1.70598E-005	0.00000E+000	3.99998E-001	0.00000E+000	8	...........	0
	903	90.4	4.03189E-001	1.54130E-005	0.00000E+000	4.02998E-001	0.00000E+000	8	...........	0
	906	90.7	4.06092E-001	1.55630E-005	0.00000E+000	4.05999E-001	0.00000E+000	8	...........	0
	909	91	4.09195E-001	1.51363E-005	0.00000E+000	4.08999E-001	0.00000E+000	8	...........	0
	912	91.3	4.12098E-001	1.56997E-005	0.00000E+000	4.11999E-001	0.00000E+000	8	...........	0
	915	91.6	4.15101E-001	1.65364E-005	0.00000E+000	4.14999E-001	0.00000E+000	8	...........	0
	918	91.9	4.18104E-001	1.72698E-005	0.00000E+000	4.17999E-001	0.00000E+000	8	...........	0
	921	92.2	4.21107E-001	1.80399E-005	0.00000E+000	4.20999E-001	0.00000E+000	8	...........	0
	924	92.5	4.24110E-001	1.80332E-005	0.00000E+000	4.23999E-001	0.00000E+000	8	...........	0
	927	92.8	4.27113E-001	1.76632E-005	0.00000E+000	4.26999E-001	0.00000E+000	8	...........	0
	930	93.1	4.30216E-001	1.76865E-005	0.00000E+000	4.30000E-001	0.00000E+000	8	...........	0
	933	93.4	4.33019E-001	1.91399E-005	0.00000E+000	4.33000E-001	0.00000E+000	8	...........	0
	936	93.7	4.36122E-001	2.16668E-005	0.00000E+000	4.36000E-001	0.00000E+000	8	...........	0
	939	94	4.39225E-001	2.24768E-005	0.00000E+000	4.39000E-001	0.00000E+000	8	...........	0
	942	94.3	4.42028E-001	2.32202E-005	0.00000E+000	4.42000E-001	0.00000E+000	8	...........	0
	945	94.6	4.45131E-001	2.42170E-005	0.00000E+000	4.45000E-001	0.00000E+000	8	...........	0
	948	94.9	4.48134E-001	2.34069E-005	0.00000E+000	4.48000E-001	0.00000E+000	8	...........	0
	951	95.2	4.51137E-001	2.40570E-005	0.00000E+000	4.51000E-001	0.00000E+000	8	...........	0
	954	95.5	4.54040E-001	2.36603E-005	0.00000E+000	4.54001E-001	0.00000E+000	8	...........	0
	957	95.8	4.57243E-001	2.50337E-005	0.00000E+000	4.57001E-001	0.00000E+000	8	...........	0
	960	96.1	4.60146E-001	2.66938E-005	0.00000E+000	4.60001E-001	0.00000E+000	8	...........	0
	963	96.4	4.63149E-001	2.67805E-005	0.00000E+000	4.63001E-001	0.00000E+000	8	...........	0
	966	96.7	4.66052E-001	2.45737E-005	0.00000E+000	4.66001E-001	0.00000E+000	8	...........	0
	969	97	4.69255E-001	2.27735E-005	0.00000E+000	4.69001E-001	0.00000E+000	8	...........	0
	972	97.3	4.72058E-001	2.09734E-005	0.00000E+000	4.72001E-001	0.00000E+000	8	...........	0
	975	97.6	4.75061E-001	2.10934E-005	0.00000E+000	4.75001E-001	0.00000E+000	8	...........	0
	978	97.9	4.78064E-001	2.33802E-005	0.00000E+000	4.78001E-001	0.00000E+000	8	...........	0
	981	98.2	4.81067E-001	2.29702E-005	0.00000E+000	4.81002E-001	0.00000E+000	8	...........	0
	984	98.5	4.83970E-001	2.26702E-005	0.00000E+000	4.84002E-001	0.00000E+000	8	...........	0
	987	98.8	4.87173E-001	2.40470E-005	0.00000E+000	4.87002E-001	0.00000E+000	8	...........	0
	990	99.1	4.90176E-001	2.34302E-005	0.00000E+000	4.90002E-001	0.00000E+000	8	...........	0
	993	99.4	4.93079E-001	2.47737E-005	0.00000E+000	4.93002E-001	0.00000E+000	8	...........	0
	996	99.7	4.96182E-001	2.66471E-005	0.00000E+000	4.96002E-001	0.00000E+000	8	...........	0
	999	100	4.99185E-001	2.53470E-005	0.00000E+000	4.99002E-001	0.00000E+000	8	...........	0
	1002	100.3	5.02088E-001	3.07674E-005	0.00000E+000	5.02002E-001	0.00000E+000	8	...........	0
	1005	100.6	5.05191E-001	3.32876E-005	0.00000E+000	5.05003E-001	0.00000E+000	8	...........	0
	1008	100.9	5.08194E-001	3.32043E-005	0.00000E+000	5.08003E-001	0.00000E+000	8	...........	0
	1011	101.2	5.11197E-001	3.47010E-005	0.00000E+000	5.11003E-001	0.00000E+000	8	...........	0
	1014	101.5	5.14200E-001	3.51777E-005	0.00000E+000	5.14003E-001	0.00000E+000	8	...........	0
	1017	101.8	5.17103E-001	3.60011E-005	0.00000E+000	5.17003E-001	0.00000E+000	8	...........	0
	1020	102.1	5.20106E-001	3.69712E-005	0.00000E+000	5.20003E-001	0.00000E+000	8	...........	0
	1023	102.4	5.23209E-001	3.59711E-005	0.00000E+000	5.23003E-001	0.00000E+000	8	...........	0
	1026	102.7	5.26112E-001	3.77312E-005	0.00000E+000	5.26003E-001	0.00000E+000	8	...........	0
	1029	103	5.29115E-001	3.76046E-005	0.00000E+000	5.29004E-001	0.00000E+000	8	...........	0
	1032	103.3	5.32118E-001	3.79679E-005	0.00000E+000	5.32004E-001	0.00000E+000	8	...........	0
	1035	103.6	5.35121E-001	4.09881E-005	0.00000E+000	5.35004E-001	0.00000E+000	8	...........	0
	1038	103.9	5.38224E-001	4.08215E-005	0.00000E+000	5.38004E-001	0.00000E+000	8	...........	0
	1041	104.2	5.41227E-001	4.09348E-005	0.00000E+000	5.41004E-001	0.00000E+000	8	...........	0
	1044	104.5	5.44130E-001	4.24449E-005	0.00000E+000	5.44004E-001	0.00000E+000	8	...........	0
	1047	104.8	5.47233E-001	3.84913E-005	0.00000E+000	5.47004E-001	0.00000E+000	8	...........	0
	1050	105.1	5.50236E-001	3.76912E-005	0.00000E+000	5.50004E-001	0.00000E+000	8	...........	0
	1053	105.4	5.53239E-001	3.90513E-005	0.00000E+000	5.53005E-001	0.00000E+000	8	...........	0
	1056	105.7	5.56142E-001	3.95447E-005	0.00000E+000	5.56005E-001	0.00000E+000	8	...........	0
	1059	106	5.59245E-001	4.15615E-005	0.00000E+000	5.59005E-001	0.00000E+000	8	...........	0
	1062	106.3	5.62148E-001	4.33050E-005	0.00000E+000	5.62005E-001	0.00000E+000	8	...........	0
	1065	106.6	5.65251E-001	4.56251E-005	0.00000E+000	5.65005E-001	0.00000E+000	8	...........	0
	1068	106.9	5.68254E-001	4.60585E-005	0.00000E+000	5.68005E-001	0.00000E+000	8	...........	0
	1071	107.2	5.71257E-001	4.85287E-005	0.00000E+000	5.71005E-001	0.00000E+000	8	...........	0
	1074	107.5	5.74160E-001	5.14289E-005	0.00000E+000	5.74005E-001	0.00000E+000	8	...........	0
	1077	107.8	5.77163E-001	5.25956E-005	0.00000E+000	5.77006E-001	0.00000E+000	8	...........	0
	1080	108.1	5.80166E-001	5.39890E-005	0.00000E+000	5.80006E-001	0.00000E+000	8	...........	0
	1083	108.4	5.83169E-001	5.54758E-005	0.00000E+000	5.83006E-001	0.00000E+000	8	...........	0
	1086	108.7	5.86272E-001	5.80160E-005	0.00000E+000	5.86006E-001	0.00000E+000	8	...........	0
	1089	109	5.89175E-001	6.03828E-005	0.00000E+000	5.89006E-001	0.00000E+000	8	...........	0
	1092	109.3	5.92178E-001	6.24430E-005	0.00000E+000	5.92006E-001	0.00000E+000	8	...........	0
	1095	109.6	5.95181E-001	6.43931E-005	0.00000E+000	5.95006E-001	0.00000E+000	8	...........	0
	1098	109.9	5.98184E-001	6.80934E-005	0.00000E+000	5.98006E-001	0.00000E+000	8	...........	0
	1100	110.1	6.00186E-001	7.72673E-005	0.00000E+000	6.00006E-001	0.00000E+000	8	...........	0