File: LSV ZFO/ZFO_dark_reator4.DTA
EXPLAIN
TAG	LSV
TITLE	LABEL	Linear Sweep Voltammetry	Test &Identifier
DATE	LABEL	7/5/2024	Date
TIME	LABEL	18:40:08	Time
NOTES	NOTES	1	&Notes...

PSTAT	PSTAT	L3FNano	Potentiostat
VINIT	POTEN	-5.00000E-001	F	&Initial E (V)
VFINAL	POTEN	6.00000E-001	F	&Final E (V)
SCANRATE	QUANT	9.99998E+000	&Scan Rate (mV/s)
STEPSIZE	QUANT	1.00000E+000	St&ep Size (mV)
IMODE	SELECTOR	0	I/E Range &Mode
IRANGE	QUANT	1.00000E+001	&Max Current (mA)
AREA	QUANT	1.00000E+000	Electrode &Area (cm^2)
ELECTRODETYPE	SELECTOR	0	Electrode Type
STRIPPING	TOGGLE	F	Used for Stripping
POLARITY	TOGGLE	F	Signal Polarity
CONDIT	TWOPARAM	F	1.50000E+001	0.00000E+000	Conditionin&g	Time(s)	E(V)
DELAY	TWOPARAM	F	3.00000E+001	0.00000E+000	Init. De&lay	Time(s)	Stab.(mV/s)
EQDELAY	QUANT	5.00000E+000	Equil. &Time (s)
IRCOMP	SELECTOR	0	IRCom&p
PFCOR	QUANT	5.00000E+001	PF Corr. (ohm)
SAMPLINGMODE	SELECTOR	0	Sampling &Mode
EOC	QUANT	0	Open Circuit (V)
PSTATMODEL	IQUANT	48	Pstat Model
PSTATSECTION	LABEL	IFC1000-07082	Pstat Section
PSTATSERIALNO	LABEL	07082	Pstat Serial Number
CTRLMODE	IQUANT	1	Control Mode
IESTAB	IQUANT	2	I/E Stability
CASPEED	IQUANT	2	Control Amp Speed
CONVENTION	IQUANT	1	Current Convention
ICHRANGE	IQUANT	2	Ich Range
ICHRANGEMODE	TOGGLE	F	Ich Auto Range
ICHOFFSETENABLE	TOGGLE	F	Ich Offset Enable
ICHOFFSET	QUANT	0	Ich Offset (V)
ICHFILTER	IQUANT	3	Ich Filter
VCHRANGE	IQUANT	2	Vch Range
VCHRANGEMODE	TOGGLE	T	Vch Auto Range
VCHOFFSETENABLE	TOGGLE	F	Vch Offset Enable
VCHOFFSET	QUANT	0	Vch Offset (V)
VCHFILTER	IQUANT	3	Vch Filter
IERANGELOWERLIMIT	IQUANT	4	I/E Range Lower Limit
IERANGEMODE	TOGGLE	T	I/E AutoRange
IERANGE	IQUANT	11	I/E Range
ACHSELECT	IQUANT	4	Ach Select
CABLEID	IQUANT	14	Cable ID
DCCALDATE	LABEL	7/3/2024	DC Calibration Date
ACCALDATE	LABEL	7/3/2024	AC Calibration Date
FRAMEWORKVERSION	QUANT	6.24	Framework Version
INSTRUMENTVERSION	LABEL	3.28	Instrument Version
CURVE	TABLE	1101
	Pt	T	Vf	Im	Vu	Sig	Ach	IERange	Over	Cycle
	#	s	V vs. Ref.	A	V	V	V	#	bits	#
	0	0.1	-5.00010E-001	-1.39019E-006	0.00000E+000	-4.99988E-001	0.00000E+000	11	...........	0
	3	0.4	-4.97107E-001	-4.07501E-006	0.00000E+000	-4.96988E-001	0.00000E+000	8	...........	0
	6	0.7	-4.94004E-001	-3.44108E-006	0.00000E+000	-4.93988E-001	0.00000E+000	7	...........	0
	9	1	-4.91101E-001	-3.10099E-006	0.00000E+000	-4.90988E-001	0.00000E+000	7	...........	0
	12	1.3	-4.87998E-001	-2.82392E-006	0.00000E+000	-4.87988E-001	0.00000E+000	7	...........	0
	15	1.6	-4.84995E-001	-2.62486E-006	0.00000E+000	-4.84988E-001	0.00000E+000	7	...........	0
	18	1.9	-4.81992E-001	-2.29810E-006	0.00000E+000	-4.81988E-001	0.00000E+000	7	...........	0
	21	2.2	-4.79089E-001	-2.03603E-006	0.00000E+000	-4.78988E-001	0.00000E+000	7	...........	0
	24	2.5	-4.75986E-001	-1.91300E-006	0.00000E+000	-4.75987E-001	0.00000E+000	7	...........	0
	27	2.8	-4.73083E-001	-1.77929E-006	0.00000E+000	-4.72987E-001	0.00000E+000	7	...........	0
	30	3.1	-4.69980E-001	-1.60991E-006	0.00000E+000	-4.69987E-001	0.00000E+000	7	...........	0
	33	3.4	-4.66977E-001	-1.49288E-006	0.00000E+000	-4.66987E-001	0.00000E+000	7	...........	0
	36	3.7	-4.63974E-001	-1.35951E-006	0.00000E+000	-4.63987E-001	0.00000E+000	7	...........	0
	39	4	-4.61071E-001	-1.28016E-006	0.00000E+000	-4.60987E-001	0.00000E+000	7	...........	0
	42	4.3	-4.58068E-001	-1.12045E-006	0.00000E+000	-4.57987E-001	0.00000E+000	7	...........	0
	45	4.6	-4.54965E-001	-1.01208E-006	0.00000E+000	-4.54987E-001	0.00000E+000	7	...........	0
	48	4.9	-4.52062E-001	-9.77074E-007	0.00000E+000	-4.51987E-001	0.00000E+000	7	...........	0
	51	5.2	-4.49059E-001	-8.35035E-007	0.00000E+000	-4.48986E-001	0.00000E+000	7	...........	0
	54	5.5	-4.46056E-001	-7.88689E-007	0.00000E+000	-4.45986E-001	0.00000E+000	7	...........	0
	57	5.8	-4.43053E-001	-7.43677E-007	0.00000E+000	-4.42986E-001	0.00000E+000	7	...........	0
	60	6.1	-4.40050E-001	-6.40982E-007	0.00000E+000	-4.39986E-001	0.00000E+000	7	...........	0
	63	6.4	-4.37047E-001	-5.23616E-007	0.00000E+000	-4.36986E-001	0.00000E+000	7	...........	0
	66	6.7	-4.34044E-001	-5.16614E-007	0.00000E+000	-4.33986E-001	0.00000E+000	7	...........	0
	69	7	-4.31041E-001	-3.60238E-007	0.00000E+000	-4.30986E-001	0.00000E+000	7	...........	0
	72	7.3	-4.28038E-001	-3.19894E-007	0.00000E+000	-4.27986E-001	0.00000E+000	7	...........	0
	75	7.6	-4.25035E-001	-1.59183E-007	0.00000E+000	-4.24985E-001	0.00000E+000	7	...........	0
	78	7.9	-4.22032E-001	-1.20172E-007	0.00000E+000	-4.21985E-001	0.00000E+000	7	...........	0
	81	8.2	-4.19029E-001	-3.68161E-008	0.00000E+000	-4.18985E-001	0.00000E+000	7	...........	0
	84	8.5	-4.16026E-001	5.08747E-008	0.00000E+000	-4.15985E-001	0.00000E+000	7	...........	0
	87	8.8	-4.13023E-001	4.15388E-008	0.00000E+000	-4.12985E-001	0.00000E+000	7	...........	0
	90	9.1	-4.10020E-001	7.85490E-008	0.00000E+000	-4.09985E-001	0.00000E+000	7	...........	0
	93	9.4	-4.07017E-001	4.72070E-008	0.00000E+000	-4.06985E-001	0.00000E+000	7	...........	0
	96	9.7	-4.04114E-001	1.29230E-007	0.00000E+000	-4.03985E-001	0.00000E+000	7	...........	0
	99	10	-4.01111E-001	1.10224E-007	0.00000E+000	-4.00984E-001	0.00000E+000	7	...........	0
	102	10.3	-3.98108E-001	7.62150E-008	0.00000E+000	-3.97984E-001	0.00000E+000	7	...........	0
	105	10.6	-3.95005E-001	8.88851E-008	0.00000E+000	-3.94984E-001	0.00000E+000	7	...........	0
	108	10.9	-3.92002E-001	6.55454E-008	0.00000E+000	-3.91984E-001	0.00000E+000	7	...........	0
	111	11.2	-3.88999E-001	7.52147E-008	0.00000E+000	-3.88984E-001	0.00000E+000	7	...........	0
	114	11.5	-3.86096E-001	6.72125E-008	0.00000E+000	-3.85984E-001	0.00000E+000	7	...........	0
	117	11.8	-3.83093E-001	1.14892E-007	0.00000E+000	-3.82984E-001	0.00000E+000	7	...........	0
	120	12.1	-3.80190E-001	1.27562E-007	0.00000E+000	-3.79984E-001	0.00000E+000	7	...........	0
	123	12.4	-3.77087E-001	3.75377E-008	0.00000E+000	-3.76983E-001	0.00000E+000	7	...........	0
	126	12.7	-3.74084E-001	5.98772E-008	0.00000E+000	-3.73983E-001	0.00000E+000	7	...........	0
	129	13	-3.71081E-001	8.12164E-008	0.00000E+000	-3.70983E-001	0.00000E+000	7	...........	0
	132	13.3	-3.68078E-001	1.05223E-007	0.00000E+000	-3.67983E-001	0.00000E+000	7	...........	0
	135	13.6	-3.65075E-001	1.21894E-007	0.00000E+000	-3.64983E-001	0.00000E+000	7	...........	0
	138	13.9	-3.62072E-001	2.15333E-008	0.00000E+000	-3.61983E-001	0.00000E+000	7	...........	0
	141	14.2	-3.59069E-001	9.12191E-008	0.00000E+000	-3.58983E-001	0.00000E+000	7	...........	0
	144	14.5	-3.56066E-001	1.61985E-008	0.00000E+000	-3.55983E-001	0.00000E+000	7	...........	0
	147	14.8	-3.53063E-001	5.32087E-008	0.00000E+000	-3.52982E-001	0.00000E+000	7	...........	0
	150	15.1	-3.50060E-001	3.65374E-008	0.00000E+000	-3.49982E-001	0.00000E+000	7	...........	0
	153	15.4	-3.47057E-001	5.05413E-008	0.00000E+000	-3.46982E-001	0.00000E+000	7	...........	0
	156	15.7	-3.44054E-001	6.72125E-008	0.00000E+000	-3.43982E-001	0.00000E+000	7	...........	0
	159	16	-3.40951E-001	1.91993E-008	0.00000E+000	-3.40982E-001	0.00000E+000	7	...........	0
	162	16.3	-3.38048E-001	4.35394E-008	0.00000E+000	-3.37982E-001	0.00000E+000	7	...........	0
	165	16.6	-3.35045E-001	6.18777E-008	0.00000E+000	-3.34982E-001	0.00000E+000	7	...........	0
	168	16.9	-3.32042E-001	-9.80864E-009	0.00000E+000	-3.31982E-001	0.00000E+000	7	...........	0
	171	17.2	-3.29039E-001	-3.58158E-008	0.00000E+000	-3.28982E-001	0.00000E+000	7	...........	0
	174	17.5	-3.26036E-001	4.68736E-008	0.00000E+000	-3.25981E-001	0.00000E+000	7	...........	0
	177	17.8	-3.23033E-001	-3.38152E-008	0.00000E+000	-3.22981E-001	0.00000E+000	7	...........	0
	180	18.1	-3.20030E-001	7.78821E-008	0.00000E+000	-3.19981E-001	0.00000E+000	7	...........	0
	183	18.4	-3.17027E-001	5.08747E-008	0.00000E+000	-3.16981E-001	0.00000E+000	7	...........	0
	186	18.7	-3.14024E-001	3.42035E-008	0.00000E+000	-3.13981E-001	0.00000E+000	7	...........	0
	189	19	-3.11021E-001	1.81991E-008	0.00000E+000	-3.10981E-001	0.00000E+000	7	...........	0
	192	19.3	-3.08018E-001	2.42007E-008	0.00000E+000	-3.07981E-001	0.00000E+000	7	...........	0
	195	19.6	-3.05015E-001	9.12191E-008	0.00000E+000	-3.04981E-001	0.00000E+000	7	...........	0
	198	19.9	-3.02013E-001	9.98882E-008	0.00000E+000	-3.01980E-001	0.00000E+000	7	...........	0
	201	20.2	-2.99010E-001	9.28862E-008	0.00000E+000	-2.98980E-001	0.00000E+000	7	...........	0
	204	20.5	-2.95906E-001	6.68791E-008	0.00000E+000	-2.95980E-001	0.00000E+000	7	...........	0
	207	20.8	-2.93004E-001	7.15470E-008	0.00000E+000	-2.92980E-001	0.00000E+000	7	...........	0
	210	21.1	-2.90001E-001	1.10558E-007	0.00000E+000	-2.89980E-001	0.00000E+000	7	...........	0
	213	21.4	-2.86998E-001	1.41900E-007	0.00000E+000	-2.86980E-001	0.00000E+000	7	...........	0
	216	21.7	-2.84095E-001	1.11891E-007	0.00000E+000	-2.83980E-001	0.00000E+000	7	...........	0
	219	22	-2.81092E-001	9.25528E-008	0.00000E+000	-2.80980E-001	0.00000E+000	7	...........	0
	222	22.3	-2.77989E-001	5.32087E-008	0.00000E+000	-2.77979E-001	0.00000E+000	7	...........	0
	225	22.6	-2.75086E-001	1.66240E-007	0.00000E+000	-2.74979E-001	0.00000E+000	7	...........	0
	228	22.9	-2.72083E-001	8.68846E-008	0.00000E+000	-2.71979E-001	0.00000E+000	7	...........	0
	231	23.2	-2.68980E-001	1.11558E-007	0.00000E+000	-2.68979E-001	0.00000E+000	7	...........	0
	234	23.5	-2.65977E-001	8.25501E-008	0.00000E+000	-2.65979E-001	0.00000E+000	7	...........	0
	237	23.8	-2.63074E-001	1.49568E-007	0.00000E+000	-2.62979E-001	0.00000E+000	7	...........	0
	240	24.1	-2.60071E-001	2.19921E-007	0.00000E+000	-2.59979E-001	0.00000E+000	7	...........	0
	243	24.4	-2.57068E-001	1.28896E-007	0.00000E+000	-2.56979E-001	0.00000E+000	7	...........	0
	246	24.7	-2.54065E-001	1.81577E-007	0.00000E+000	-2.53978E-001	0.00000E+000	7	...........	0
	249	25	-2.50962E-001	1.47901E-007	0.00000E+000	-2.50978E-001	0.00000E+000	7	...........	0
	252	25.3	-2.47859E-001	1.70574E-007	0.00000E+000	-2.47978E-001	0.00000E+000	7	...........	0
	255	25.6	-2.45056E-001	2.21922E-007	0.00000E+000	-2.44978E-001	0.00000E+000	7	...........	0
	258	25.9	-2.41953E-001	1.62905E-007	0.00000E+000	-2.41978E-001	0.00000E+000	7	...........	0
	261	26.2	-2.38980E-001	2.37259E-007	0.00000E+000	-2.38978E-001	0.00000E+000	7	...........	0
	264	26.5	-2.35927E-001	1.95248E-007	0.00000E+000	-2.35978E-001	0.00000E+000	7	...........	0
	267	26.8	-2.32974E-001	2.19921E-007	0.00000E+000	-2.32978E-001	0.00000E+000	7	...........	0
	270	27.1	-2.29971E-001	2.20921E-007	0.00000E+000	-2.29977E-001	0.00000E+000	7	...........	0
	273	27.4	-2.26948E-001	2.44928E-007	0.00000E+000	-2.26977E-001	0.00000E+000	7	...........	0
	276	27.7	-2.23965E-001	2.77937E-007	0.00000E+000	-2.23977E-001	0.00000E+000	7	...........	0
	279	28	-2.20982E-001	2.42261E-007	0.00000E+000	-2.20977E-001	0.00000E+000	7	...........	0
	282	28.3	-2.17939E-001	1.79243E-007	0.00000E+000	-2.17977E-001	0.00000E+000	7	...........	0
	285	28.6	-2.14946E-001	3.30285E-007	0.00000E+000	-2.14977E-001	0.00000E+000	7	...........	0
	288	28.9	-2.11953E-001	2.42261E-007	0.00000E+000	-2.11977E-001	0.00000E+000	7	...........	0
	291	29.2	-2.08960E-001	3.06945E-007	0.00000E+000	-2.08977E-001	0.00000E+000	7	...........	0
	294	29.5	-2.05957E-001	2.68601E-007	0.00000E+000	-2.05976E-001	0.00000E+000	7	...........	0
	297	29.8	-2.02954E-001	2.54264E-007	0.00000E+000	-2.02976E-001	0.00000E+000	7	...........	0
	300	30.1	-1.99961E-001	2.92608E-007	0.00000E+000	-1.99976E-001	0.00000E+000	7	...........	0
	303	30.4	-1.96948E-001	3.50957E-007	0.00000E+000	-1.96976E-001	0.00000E+000	7	...........	0
	306	30.7	-1.93965E-001	2.58265E-007	0.00000E+000	-1.93976E-001	0.00000E+000	7	...........	0
	309	31	-1.90982E-001	3.10613E-007	0.00000E+000	-1.90976E-001	0.00000E+000	7	...........	0
	312	31.3	-1.87959E-001	2.60266E-007	0.00000E+000	-1.87976E-001	0.00000E+000	7	...........	0
	315	31.6	-1.84997E-001	2.10252E-007	0.00000E+000	-1.84976E-001	0.00000E+000	7	...........	0
	318	31.9	-1.81954E-001	2.37259E-007	0.00000E+000	-1.81975E-001	0.00000E+000	7	...........	0
	321	32.2	-1.78951E-001	2.07584E-007	0.00000E+000	-1.78975E-001	0.00000E+000	7	...........	0
	324	32.5	-1.75968E-001	2.34592E-007	0.00000E+000	-1.75975E-001	0.00000E+000	7	...........	0
	327	32.8	-1.72935E-001	2.37926E-007	0.00000E+000	-1.72975E-001	0.00000E+000	7	...........	0
	330	33.1	-1.69972E-001	2.63266E-007	0.00000E+000	-1.69975E-001	0.00000E+000	7	...........	0
	333	33.4	-1.67039E-001	1.88913E-007	0.00000E+000	-1.67025E-001	0.00000E+000	7	...........	0
	336	33.7	-1.64036E-001	2.32925E-007	0.00000E+000	-1.64025E-001	0.00000E+000	7	...........	0
	339	34	-1.61023E-001	2.39593E-007	0.00000E+000	-1.61025E-001	0.00000E+000	7	...........	0
	342	34.3	-1.57990E-001	1.53236E-007	0.00000E+000	-1.58025E-001	0.00000E+000	7	...........	0
	345	34.6	-1.55037E-001	1.84578E-007	0.00000E+000	-1.55024E-001	0.00000E+000	7	...........	0
	348	34.9	-1.52064E-001	2.42927E-007	0.00000E+000	-1.52024E-001	0.00000E+000	7	...........	0
	351	35.2	-1.49031E-001	2.18587E-007	0.00000E+000	-1.49024E-001	0.00000E+000	7	...........	0
	354	35.5	-1.46008E-001	1.23561E-007	0.00000E+000	-1.46024E-001	0.00000E+000	7	...........	0
	357	35.8	-1.43035E-001	2.35259E-007	0.00000E+000	-1.43024E-001	0.00000E+000	7	...........	0
	360	36.1	-1.40082E-001	2.35592E-007	0.00000E+000	-1.40024E-001	0.00000E+000	7	...........	0
	363	36.4	-1.37029E-001	1.66907E-007	0.00000E+000	-1.37024E-001	0.00000E+000	7	...........	0
	366	36.7	-1.34016E-001	1.48568E-007	0.00000E+000	-1.34024E-001	0.00000E+000	7	...........	0
	369	37	-1.30983E-001	2.53597E-007	0.00000E+000	-1.31023E-001	0.00000E+000	7	...........	0
	372	37.3	-1.28030E-001	2.25256E-007	0.00000E+000	-1.28023E-001	0.00000E+000	7	...........	0
	375	37.6	-1.25037E-001	1.89579E-007	0.00000E+000	-1.25023E-001	0.00000E+000	7	...........	0
	378	37.9	-1.22024E-001	1.96248E-007	0.00000E+000	-1.22023E-001	0.00000E+000	7	...........	0
	381	38.2	-1.19051E-001	2.53930E-007	0.00000E+000	-1.19023E-001	0.00000E+000	7	...........	0
	384	38.5	-1.16068E-001	2.46595E-007	0.00000E+000	-1.16023E-001	0.00000E+000	7	...........	0
	387	38.8	-1.13045E-001	2.24922E-007	0.00000E+000	-1.13023E-001	0.00000E+000	7	...........	0
	390	39.1	-1.10042E-001	2.68601E-007	0.00000E+000	-1.10023E-001	0.00000E+000	7	...........	0
	393	39.4	-1.07089E-001	2.49929E-007	0.00000E+000	-1.07022E-001	0.00000E+000	7	...........	0
	396	39.7	-1.04066E-001	2.36259E-007	0.00000E+000	-1.04022E-001	0.00000E+000	7	...........	0
	399	40	-1.01073E-001	2.76603E-007	0.00000E+000	-1.01022E-001	0.00000E+000	7	...........	0
	402	40.3	-9.79999E-002	2.23589E-007	0.00000E+000	-9.80221E-002	0.00000E+000	7	...........	0
	405	40.6	-9.50370E-002	2.34925E-007	0.00000E+000	-9.50219E-002	0.00000E+000	7	...........	0
	408	40.9	-9.20640E-002	3.31952E-007	0.00000E+000	-9.20218E-002	0.00000E+000	7	...........	0
	411	41.2	-8.90610E-002	2.64267E-007	0.00000E+000	-8.90217E-002	0.00000E+000	7	...........	0
	414	41.5	-8.60380E-002	2.83939E-007	0.00000E+000	-8.60216E-002	0.00000E+000	7	...........	0
	417	41.8	-8.30250E-002	3.08612E-007	0.00000E+000	-8.30214E-002	0.00000E+000	7	...........	0
	420	42.1	-8.00721E-002	2.65600E-007	0.00000E+000	-8.00213E-002	0.00000E+000	7	...........	0
	423	42.4	-7.70591E-002	3.30952E-007	0.00000E+000	-7.70212E-002	0.00000E+000	7	...........	0
	426	42.7	-7.40661E-002	3.25283E-007	0.00000E+000	-7.40211E-002	0.00000E+000	7	...........	0
	429	43	-7.10631E-002	3.87300E-007	0.00000E+000	-7.10210E-002	0.00000E+000	7	...........	0
	432	43.3	-6.80601E-002	3.80965E-007	0.00000E+000	-6.80208E-002	0.00000E+000	7	...........	0
	435	43.6	-6.50471E-002	4.09306E-007	0.00000E+000	-6.50207E-002	0.00000E+000	7	...........	0
	438	43.9	-6.20341E-002	4.02638E-007	0.00000E+000	-6.20206E-002	0.00000E+000	7	...........	0
	441	44.2	-5.90712E-002	3.84966E-007	0.00000E+000	-5.90205E-002	0.00000E+000	7	...........	0
	444	44.5	-5.60282E-002	4.38315E-007	0.00000E+000	-5.60203E-002	0.00000E+000	7	...........	0
	447	44.8	-5.30252E-002	5.37008E-007	0.00000E+000	-5.30202E-002	0.00000E+000	7	...........	0
	450	45.1	-5.00522E-002	4.71990E-007	0.00000E+000	-5.00201E-002	0.00000E+000	7	...........	0
	453	45.4	-4.70392E-002	5.30340E-007	0.00000E+000	-4.70200E-002	0.00000E+000	7	...........	0
	456	45.7	-4.40662E-002	5.23671E-007	0.00000E+000	-4.40199E-002	0.00000E+000	7	...........	0
	459	46	-4.10432E-002	5.77686E-007	0.00000E+000	-4.10197E-002	0.00000E+000	7	...........	0
	462	46.3	-3.80202E-002	5.37675E-007	0.00000E+000	-3.80196E-002	0.00000E+000	7	...........	0
	465	46.6	-3.50473E-002	6.32368E-007	0.00000E+000	-3.50195E-002	0.00000E+000	7	...........	0
	468	46.9	-3.20143E-002	5.50012E-007	0.00000E+000	-3.20194E-002	0.00000E+000	7	...........	0
	471	47.2	-2.90713E-002	6.35702E-007	0.00000E+000	-2.90192E-002	0.00000E+000	7	...........	0
	474	47.5	-2.60483E-002	6.51373E-007	0.00000E+000	-2.60191E-002	0.00000E+000	7	...........	0
	477	47.8	-2.30411E-002	6.64377E-007	0.00000E+000	-2.30190E-002	0.00000E+000	7	...........	0
	480	48.1	-2.00601E-002	6.49706E-007	0.00000E+000	-2.00189E-002	0.00000E+000	7	...........	0
	483	48.4	-1.70972E-002	6.93385E-007	0.00000E+000	-1.70187E-002	0.00000E+000	7	...........	0
	486	48.7	-1.40451E-002	7.13724E-007	0.00000E+000	-1.40186E-002	0.00000E+000	7	...........	0
	489	49	-1.10572E-002	7.45732E-007	0.00000E+000	-1.10185E-002	0.00000E+000	7	...........	0
	492	49.3	-8.04315E-003	7.47733E-007	0.00000E+000	-8.01838E-003	0.00000E+000	7	...........	0
	495	49.6	-5.03115E-003	7.52734E-007	0.00000E+000	-5.01826E-003	0.00000E+000	7	...........	0
	498	49.9	-2.07521E-003	8.24421E-007	0.00000E+000	-2.01814E-003	0.00000E+000	7	...........	0
	501	50.2	8.90739E-004	7.89078E-007	0.00000E+000	9.81987E-004	0.00000E+000	7	...........	0
	504	50.5	3.96580E-003	8.83770E-007	0.00000E+000	3.98211E-003	0.00000E+000	7	...........	0
	507	50.8	6.96879E-003	8.19753E-007	0.00000E+000	6.98223E-003	0.00000E+000	7	...........	0
	510	51.1	9.91372E-003	8.50428E-007	0.00000E+000	9.98235E-003	0.00000E+000	7	...........	0
	513	51.4	1.29567E-002	8.59764E-007	0.00000E+000	1.29825E-002	0.00000E+000	7	...........	0
	516	51.7	1.59347E-002	8.88438E-007	0.00000E+000	1.59826E-002	0.00000E+000	7	...........	0
	519	52	1.89597E-002	8.64765E-007	0.00000E+000	1.89827E-002	0.00000E+000	7	...........	0
	522	52.3	2.19307E-002	8.56429E-007	0.00000E+000	2.19828E-002	0.00000E+000	7	...........	0
	525	52.6	2.49407E-002	9.44120E-007	0.00000E+000	2.49830E-002	0.00000E+000	7	...........	0
	528	52.9	2.79655E-002	8.19419E-007	0.00000E+000	2.79831E-002	0.00000E+000	7	...........	0
	531	53.2	3.09885E-002	8.92773E-007	0.00000E+000	3.09832E-002	0.00000E+000	7	...........	0
	534	53.5	3.39714E-002	8.84437E-007	0.00000E+000	3.39833E-002	0.00000E+000	7	...........	0
	537	53.8	3.69844E-002	8.54095E-007	0.00000E+000	3.69835E-002	0.00000E+000	7	...........	0
	540	54.1	3.99774E-002	9.36118E-007	0.00000E+000	3.99836E-002	0.00000E+000	7	...........	0
	543	54.4	4.29704E-002	9.45787E-007	0.00000E+000	4.29837E-002	0.00000E+000	7	...........	0
	546	54.7	4.59734E-002	8.57430E-007	0.00000E+000	4.59838E-002	0.00000E+000	7	...........	0
	549	55	4.89664E-002	8.56763E-007	0.00000E+000	4.89840E-002	0.00000E+000	7	...........	0
	552	55.3	5.19693E-002	8.21086E-007	0.00000E+000	5.19841E-002	0.00000E+000	7	...........	0
	555	55.6	5.49924E-002	9.01775E-007	0.00000E+000	5.49842E-002	0.00000E+000	7	...........	0
	558	55.9	5.79753E-002	8.19753E-007	0.00000E+000	5.79843E-002	0.00000E+000	7	...........	0
	561	56.2	6.10083E-002	8.20753E-007	0.00000E+000	6.09844E-002	0.00000E+000	7	...........	0
	564	56.5	6.39813E-002	7.99080E-007	0.00000E+000	6.39846E-002	0.00000E+000	7	...........	0
	567	56.8	6.70043E-002	7.73407E-007	0.00000E+000	6.69847E-002	0.00000E+000	7	...........	0
	570	57.1	7.00073E-002	7.91078E-007	0.00000E+000	6.99848E-002	0.00000E+000	7	...........	0
	573	57.4	7.29803E-002	7.32395E-007	0.00000E+000	7.29849E-002	0.00000E+000	7	...........	0
	576	57.7	7.60133E-002	8.01748E-007	0.00000E+000	7.59851E-002	0.00000E+000	7	...........	0
	579	58	7.89562E-002	7.56068E-007	0.00000E+000	7.89852E-002	0.00000E+000	7	...........	0
	582	58.3	8.19792E-002	7.35396E-007	0.00000E+000	8.19853E-002	0.00000E+000	7	...........	0
	585	58.6	8.49722E-002	7.40731E-007	0.00000E+000	8.49854E-002	0.00000E+000	7	...........	0
	588	58.9	8.79552E-002	6.39036E-007	0.00000E+000	8.79855E-002	0.00000E+000	7	...........	0
	591	59.2	9.09782E-002	7.04388E-007	0.00000E+000	9.09857E-002	0.00000E+000	7	...........	0
	594	59.5	9.39711E-002	6.47705E-007	0.00000E+000	9.39858E-002	0.00000E+000	7	...........	0
	597	59.8	9.70042E-002	6.60042E-007	0.00000E+000	9.69859E-002	0.00000E+000	7	...........	0
	600	60.1	9.99571E-002	6.78380E-007	0.00000E+000	9.99860E-002	0.00000E+000	7	...........	0
	603	60.4	1.02980E-001	6.43371E-007	0.00000E+000	1.02986E-001	0.00000E+000	7	...........	0
	606	60.7	1.05953E-001	6.76047E-007	0.00000E+000	1.05986E-001	0.00000E+000	7	...........	0
	609	61	1.08996E-001	6.54040E-007	0.00000E+000	1.08986E-001	0.00000E+000	7	...........	0
	612	61.3	1.11939E-001	6.92384E-007	0.00000E+000	1.11987E-001	0.00000E+000	7	...........	0
	615	61.6	1.14942E-001	7.14724E-007	0.00000E+000	1.14987E-001	0.00000E+000	7	...........	0
	618	61.9	1.17945E-001	6.65043E-007	0.00000E+000	1.17987E-001	0.00000E+000	7	...........	0
	621	62.2	1.20968E-001	6.87383E-007	0.00000E+000	1.20987E-001	0.00000E+000	7	...........	0
	624	62.5	1.23931E-001	6.52707E-007	0.00000E+000	1.23987E-001	0.00000E+000	7	...........	0
	627	62.8	1.26964E-001	7.05054E-007	0.00000E+000	1.26987E-001	0.00000E+000	7	...........	0
	630	63.1	1.29927E-001	6.72712E-007	0.00000E+000	1.29987E-001	0.00000E+000	7	...........	0
	633	63.4	1.32930E-001	7.02720E-007	0.00000E+000	1.32987E-001	0.00000E+000	7	...........	0
	636	63.7	1.35953E-001	7.79408E-007	0.00000E+000	1.35988E-001	0.00000E+000	7	...........	0
	639	64	1.38946E-001	7.18391E-007	0.00000E+000	1.38988E-001	0.00000E+000	7	...........	0
	642	64.3	1.41939E-001	7.99747E-007	0.00000E+000	1.41988E-001	0.00000E+000	7	...........	0
	645	64.6	1.44942E-001	7.97413E-007	0.00000E+000	1.44988E-001	0.00000E+000	7	...........	0
	648	64.9	1.47925E-001	8.41759E-007	0.00000E+000	1.47988E-001	0.00000E+000	7	...........	0
	651	65.2	1.50918E-001	7.94412E-007	0.00000E+000	1.50988E-001	0.00000E+000	7	...........	0
	654	65.5	1.53931E-001	8.52095E-007	0.00000E+000	1.53988E-001	0.00000E+000	7	...........	0
	657	65.8	1.56934E-001	7.96746E-007	0.00000E+000	1.56988E-001	0.00000E+000	7	...........	0
	660	66.1	1.59957E-001	9.12445E-007	0.00000E+000	1.59988E-001	0.00000E+000	7	...........	0
	663	66.4	1.62950E-001	8.67432E-007	0.00000E+000	1.62989E-001	0.00000E+000	7	...........	0
	666	66.7	1.65953E-001	8.95773E-007	0.00000E+000	1.65989E-001	0.00000E+000	7	...........	0
	669	67	1.68956E-001	8.34090E-007	0.00000E+000	1.68989E-001	0.00000E+000	7	...........	0
	672	67.3	1.71989E-001	8.30089E-007	0.00000E+000	1.71989E-001	0.00000E+000	7	...........	0
	675	67.6	1.74972E-001	8.19753E-007	0.00000E+000	1.74989E-001	0.00000E+000	7	...........	0
	678	67.9	1.77975E-001	7.46399E-007	0.00000E+000	1.77989E-001	0.00000E+000	7	...........	0
	681	68.2	1.80948E-001	6.72379E-007	0.00000E+000	1.80989E-001	0.00000E+000	7	...........	0
	684	68.5	1.83971E-001	6.43037E-007	0.00000E+000	1.83989E-001	0.00000E+000	7	...........	0
	687	68.8	1.86974E-001	6.90717E-007	0.00000E+000	1.86990E-001	0.00000E+000	7	...........	0
	690	69.1	1.89937E-001	7.49733E-007	0.00000E+000	1.89990E-001	0.00000E+000	7	...........	0
	693	69.4	1.92910E-001	6.18697E-007	0.00000E+000	1.92990E-001	0.00000E+000	7	...........	0
	696	69.7	1.95973E-001	6.80381E-007	0.00000E+000	1.95990E-001	0.00000E+000	7	...........	0
	699	70	1.98946E-001	7.09055E-007	0.00000E+000	1.98990E-001	0.00000E+000	7	...........	0
	702	70.3	2.01929E-001	6.67711E-007	0.00000E+000	2.01990E-001	0.00000E+000	7	...........	0
	705	70.6	2.04912E-001	6.92718E-007	0.00000E+000	2.04990E-001	0.00000E+000	7	...........	0
	708	70.9	2.07925E-001	7.39397E-007	0.00000E+000	2.07990E-001	0.00000E+000	7	...........	0
	711	71.2	2.10918E-001	8.38758E-007	0.00000E+000	2.10991E-001	0.00000E+000	7	...........	0
	714	71.5	2.13931E-001	8.87438E-007	0.00000E+000	2.13991E-001	0.00000E+000	7	...........	0
	717	71.8	2.16954E-001	8.38091E-007	0.00000E+000	2.16991E-001	0.00000E+000	7	...........	0
	720	72.1	2.19957E-001	8.14751E-007	0.00000E+000	2.19991E-001	0.00000E+000	7	...........	0
	723	72.4	2.22960E-001	8.55762E-007	0.00000E+000	2.22991E-001	0.00000E+000	7	...........	0
	726	72.7	2.25933E-001	8.62098E-007	0.00000E+000	2.25991E-001	0.00000E+000	7	...........	0
	729	73	2.28925E-001	8.94440E-007	0.00000E+000	2.28991E-001	0.00000E+000	7	...........	0
	732	73.3	2.31968E-001	8.69433E-007	0.00000E+000	2.31991E-001	0.00000E+000	7	...........	0
	735	73.6	2.34931E-001	9.13778E-007	0.00000E+000	2.34992E-001	0.00000E+000	7	...........	0
	738	73.9	2.37924E-001	8.56429E-007	0.00000E+000	2.37992E-001	0.00000E+000	7	...........	0
	741	74.2	2.40917E-001	7.95746E-007	0.00000E+000	2.40992E-001	0.00000E+000	7	...........	0
	744	74.5	2.43950E-001	7.27727E-007	0.00000E+000	2.43992E-001	0.00000E+000	7	...........	0
	747	74.8	2.46953E-001	7.27727E-007	0.00000E+000	2.46992E-001	0.00000E+000	7	...........	0
	750	75.1	2.49946E-001	6.87716E-007	0.00000E+000	2.49992E-001	0.00000E+000	7	...........	0
	753	75.4	2.52939E-001	6.33368E-007	0.00000E+000	2.52992E-001	0.00000E+000	7	...........	0
	756	75.7	2.55892E-001	6.55374E-007	0.00000E+000	2.55992E-001	0.00000E+000	7	...........	0
	759	76	2.58885E-001	6.87716E-007	0.00000E+000	2.58993E-001	0.00000E+000	7	...........	0
	762	76.3	2.61848E-001	6.27700E-007	0.00000E+000	2.61993E-001	0.00000E+000	7	...........	0
	765	76.6	2.64891E-001	6.11362E-007	0.00000E+000	2.64993E-001	0.00000E+000	7	...........	0
	768	76.9	2.68055E-001	6.04694E-007	0.00000E+000	2.67993E-001	0.00000E+000	7	...........	0
	771	77.2	2.71058E-001	5.80354E-007	0.00000E+000	2.70993E-001	0.00000E+000	7	...........	0
	774	77.5	2.74061E-001	6.43371E-007	0.00000E+000	2.73993E-001	0.00000E+000	7	...........	0
	777	77.8	2.77064E-001	6.41370E-007	0.00000E+000	2.76993E-001	0.00000E+000	7	...........	0
	780	78.1	2.80067E-001	6.54374E-007	0.00000E+000	2.79993E-001	0.00000E+000	7	...........	0
	783	78.4	2.83070E-001	6.24366E-007	0.00000E+000	2.82993E-001	0.00000E+000	7	...........	0
	786	78.7	2.86173E-001	5.91023E-007	0.00000E+000	2.85994E-001	0.00000E+000	7	...........	0
	789	79	2.89076E-001	6.56041E-007	0.00000E+000	2.88994E-001	0.00000E+000	7	...........	0
	792	79.3	2.92179E-001	6.35035E-007	0.00000E+000	2.91994E-001	0.00000E+000	7	...........	0
	795	79.6	2.94982E-001	6.27033E-007	0.00000E+000	2.94994E-001	0.00000E+000	7	...........	0
	798	79.9	2.97985E-001	6.79047E-007	0.00000E+000	2.97994E-001	0.00000E+000	7	...........	0
	801	80.2	3.01088E-001	6.10028E-007	0.00000E+000	3.00994E-001	0.00000E+000	7	...........	0
	804	80.5	3.04091E-001	6.47705E-007	0.00000E+000	3.03994E-001	0.00000E+000	7	...........	0
	807	80.8	3.06994E-001	6.82048E-007	0.00000E+000	3.06994E-001	0.00000E+000	7	...........	0
	810	81.1	3.10097E-001	7.48400E-007	0.00000E+000	3.09995E-001	0.00000E+000	7	...........	0
	813	81.4	3.13100E-001	6.70045E-007	0.00000E+000	3.12995E-001	0.00000E+000	7	...........	0
	816	81.7	3.16103E-001	6.30701E-007	0.00000E+000	3.15995E-001	0.00000E+000	7	...........	0
	819	82	3.19106E-001	6.93385E-007	0.00000E+000	3.18995E-001	0.00000E+000	7	...........	0
	822	82.3	3.22109E-001	7.06388E-007	0.00000E+000	3.21995E-001	0.00000E+000	7	...........	0
	825	82.6	3.25012E-001	6.99053E-007	0.00000E+000	3.24995E-001	0.00000E+000	7	...........	0
	828	82.9	3.28115E-001	6.81048E-007	0.00000E+000	3.27995E-001	0.00000E+000	7	...........	0
	831	83.2	3.30917E-001	6.95052E-007	0.00000E+000	3.30995E-001	0.00000E+000	7	...........	0
	834	83.5	3.34121E-001	7.81409E-007	0.00000E+000	3.33996E-001	0.00000E+000	7	...........	0
	837	83.8	3.37124E-001	7.44399E-007	0.00000E+000	3.36996E-001	0.00000E+000	7	...........	0
	840	84.1	3.40127E-001	7.37063E-007	0.00000E+000	3.39996E-001	0.00000E+000	7	...........	0
	843	84.4	3.43130E-001	7.41731E-007	0.00000E+000	3.42996E-001	0.00000E+000	7	...........	0
	846	84.7	3.46133E-001	7.54068E-007	0.00000E+000	3.45996E-001	0.00000E+000	7	...........	0
	849	85	3.49036E-001	7.80408E-007	0.00000E+000	3.48996E-001	0.00000E+000	7	...........	0
	852	85.3	3.52039E-001	7.93079E-007	0.00000E+000	3.51996E-001	0.00000E+000	7	...........	0
	855	85.6	3.55142E-001	8.22753E-007	0.00000E+000	3.54996E-001	0.00000E+000	7	...........	0
	858	85.9	3.58044E-001	8.20419E-007	0.00000E+000	3.57997E-001	0.00000E+000	7	...........	0
	861	86.2	3.61047E-001	7.84410E-007	0.00000E+000	3.60997E-001	0.00000E+000	7	...........	0
	864	86.5	3.64151E-001	8.10083E-007	0.00000E+000	3.63997E-001	0.00000E+000	7	...........	0
	867	86.8	3.67053E-001	8.01414E-007	0.00000E+000	3.66997E-001	0.00000E+000	7	...........	0
	870	87.1	3.70056E-001	8.86437E-007	0.00000E+000	3.69997E-001	0.00000E+000	7	...........	0
	873	87.4	3.73160E-001	8.67099E-007	0.00000E+000	3.72997E-001	0.00000E+000	7	...........	0
	876	87.7	3.76162E-001	8.26755E-007	0.00000E+000	3.75997E-001	0.00000E+000	7	...........	0
	879	88	3.79166E-001	8.35424E-007	0.00000E+000	3.78997E-001	0.00000E+000	7	...........	0
	882	88.3	3.82169E-001	8.86771E-007	0.00000E+000	3.81998E-001	0.00000E+000	7	...........	0
	885	88.6	3.85071E-001	8.71100E-007	0.00000E+000	3.84998E-001	0.00000E+000	7	...........	0
	888	88.9	3.88074E-001	8.94106E-007	0.00000E+000	3.87998E-001	0.00000E+000	7	...........	0
	891	89.2	3.91077E-001	9.50122E-007	0.00000E+000	3.90998E-001	0.00000E+000	7	...........	0
	894	89.5	3.94180E-001	9.51455E-007	0.00000E+000	3.93998E-001	0.00000E+000	7	...........	0
	897	89.8	3.97183E-001	8.82436E-007	0.00000E+000	3.96998E-001	0.00000E+000	7	...........	0
	900	90.1	4.00086E-001	8.93773E-007	0.00000E+000	3.99998E-001	0.00000E+000	7	...........	0
	903	90.4	4.03089E-001	9.14445E-007	0.00000E+000	4.02998E-001	0.00000E+000	7	...........	0
	906	90.7	4.06092E-001	9.25448E-007	0.00000E+000	4.05999E-001	0.00000E+000	7	...........	0
	909	91	4.09195E-001	9.18446E-007	0.00000E+000	4.08999E-001	0.00000E+000	7	...........	0
	912	91.3	4.12098E-001	8.59097E-007	0.00000E+000	4.11999E-001	0.00000E+000	7	...........	0
	915	91.6	4.15101E-001	9.26115E-007	0.00000E+000	4.14999E-001	0.00000E+000	7	...........	0
	918	91.9	4.18104E-001	9.79797E-007	0.00000E+000	4.17999E-001	0.00000E+000	7	...........	0
	921	92.2	4.21107E-001	9.87465E-007	0.00000E+000	4.20999E-001	0.00000E+000	7	...........	0
	924	92.5	4.24110E-001	1.05348E-006	0.00000E+000	4.23999E-001	0.00000E+000	7	...........	0
	927	92.8	4.27113E-001	1.01781E-006	0.00000E+000	4.26999E-001	0.00000E+000	7	...........	0
	930	93.1	4.30016E-001	1.07616E-006	0.00000E+000	4.30000E-001	0.00000E+000	7	...........	0
	933	93.4	4.33119E-001	1.04748E-006	0.00000E+000	4.33000E-001	0.00000E+000	7	...........	0
	936	93.7	4.36122E-001	1.06282E-006	0.00000E+000	4.36000E-001	0.00000E+000	7	...........	0
	939	94	4.39125E-001	1.17618E-006	0.00000E+000	4.39000E-001	0.00000E+000	7	...........	0
	942	94.3	4.42128E-001	1.14651E-006	0.00000E+000	4.42000E-001	0.00000E+000	7	...........	0
	945	94.6	4.45031E-001	1.19952E-006	0.00000E+000	4.45000E-001	0.00000E+000	7	...........	0
	948	94.9	4.48134E-001	1.16952E-006	0.00000E+000	4.48000E-001	0.00000E+000	7	...........	0
	951	95.2	4.51037E-001	1.24954E-006	0.00000E+000	4.51000E-001	0.00000E+000	7	...........	0
	954	95.5	4.54040E-001	1.25321E-006	0.00000E+000	4.54001E-001	0.00000E+000	7	...........	0
	957	95.8	4.57143E-001	1.18519E-006	0.00000E+000	4.57001E-001	0.00000E+000	7	...........	0
	960	96.1	4.60146E-001	1.20486E-006	0.00000E+000	4.60001E-001	0.00000E+000	7	...........	0
	963	96.4	4.63149E-001	1.21386E-006	0.00000E+000	4.63001E-001	0.00000E+000	7	...........	0
	966	96.7	4.66052E-001	1.20686E-006	0.00000E+000	4.66001E-001	0.00000E+000	7	...........	0
	969	97	4.69155E-001	1.16818E-006	0.00000E+000	4.69001E-001	0.00000E+000	7	...........	0
	972	97.3	4.72058E-001	1.08916E-006	0.00000E+000	4.72001E-001	0.00000E+000	7	...........	0
	975	97.6	4.75261E-001	1.08683E-006	0.00000E+000	4.75001E-001	0.00000E+000	7	...........	0
	978	97.9	4.78164E-001	1.04381E-006	0.00000E+000	4.78001E-001	0.00000E+000	7	...........	0
	981	98.2	4.81167E-001	1.00714E-006	0.00000E+000	4.81002E-001	0.00000E+000	7	...........	0
	984	98.5	4.84170E-001	9.93467E-007	0.00000E+000	4.84002E-001	0.00000E+000	7	...........	0
	987	98.8	4.87173E-001	9.06777E-007	0.00000E+000	4.87002E-001	0.00000E+000	7	...........	0
	990	99.1	4.90176E-001	1.01347E-006	0.00000E+000	4.90002E-001	0.00000E+000	7	...........	0
	993	99.4	4.93079E-001	9.34451E-007	0.00000E+000	4.93002E-001	0.00000E+000	7	...........	0
	996	99.7	4.96182E-001	9.03109E-007	0.00000E+000	4.96002E-001	0.00000E+000	7	...........	0
	999	100	4.99185E-001	9.66126E-007	0.00000E+000	4.99002E-001	0.00000E+000	7	...........	0
	1002	100.3	5.02088E-001	9.32117E-007	0.00000E+000	5.02002E-001	0.00000E+000	7	...........	0
	1005	100.6	5.05091E-001	8.69766E-007	0.00000E+000	5.05003E-001	0.00000E+000	7	...........	0
	1008	100.9	5.08094E-001	9.81130E-007	0.00000E+000	5.08003E-001	0.00000E+000	7	...........	0
	1011	101.2	5.11097E-001	1.00114E-006	0.00000E+000	5.11003E-001	0.00000E+000	7	...........	0
	1014	101.5	5.14200E-001	1.17552E-006	0.00000E+000	5.14003E-001	0.00000E+000	7	...........	0
	1017	101.8	5.17103E-001	1.16885E-006	0.00000E+000	5.17003E-001	0.00000E+000	7	...........	0
	1020	102.1	5.20206E-001	1.25154E-006	0.00000E+000	5.20003E-001	0.00000E+000	7	...........	0
	1023	102.4	5.23109E-001	1.31022E-006	0.00000E+000	5.23003E-001	0.00000E+000	7	...........	0
	1026	102.7	5.26112E-001	1.36357E-006	0.00000E+000	5.26003E-001	0.00000E+000	7	...........	0
	1029	103	5.29215E-001	1.41958E-006	0.00000E+000	5.29004E-001	0.00000E+000	7	...........	0
	1032	103.3	5.32118E-001	1.35723E-006	0.00000E+000	5.32004E-001	0.00000E+000	7	...........	0
	1035	103.6	5.35221E-001	1.39791E-006	0.00000E+000	5.35004E-001	0.00000E+000	7	...........	0
	1038	103.9	5.38124E-001	1.44993E-006	0.00000E+000	5.38004E-001	0.00000E+000	7	...........	0
	1041	104.2	5.41127E-001	1.43025E-006	0.00000E+000	5.41004E-001	0.00000E+000	7	...........	0
	1044	104.5	5.44230E-001	1.41258E-006	0.00000E+000	5.44004E-001	0.00000E+000	7	...........	0
	1047	104.8	5.47133E-001	1.44759E-006	0.00000E+000	5.47004E-001	0.00000E+000	7	...........	0
	1050	105.1	5.50136E-001	1.43159E-006	0.00000E+000	5.50004E-001	0.00000E+000	7	...........	0
	1053	105.4	5.53139E-001	1.42325E-006	0.00000E+000	5.53005E-001	0.00000E+000	7	...........	0
	1056	105.7	5.56042E-001	1.48527E-006	0.00000E+000	5.56005E-001	0.00000E+000	7	...........	0
	1059	106	5.59145E-001	1.58996E-006	0.00000E+000	5.59005E-001	0.00000E+000	7	...........	0
	1062	106.3	5.62148E-001	1.67832E-006	0.00000E+000	5.62005E-001	0.00000E+000	7	...........	0
	1065	106.6	5.65051E-001	1.75468E-006	0.00000E+000	5.65005E-001	0.00000E+000	7	...........	0
	1068	106.9	5.68154E-001	1.78102E-006	0.00000E+000	5.68005E-001	0.00000E+000	7	...........	0
	1071	107.2	5.71056E-001	1.96073E-006	0.00000E+000	5.71005E-001	0.00000E+000	7	...........	0
	1074	107.5	5.74160E-001	2.02875E-006	0.00000E+000	5.74005E-001	0.00000E+000	7	...........	0
	1077	107.8	5.77062E-001	2.05809E-006	0.00000E+000	5.77006E-001	0.00000E+000	7	...........	0
	1080	108.1	5.80166E-001	2.11678E-006	0.00000E+000	5.80006E-001	0.00000E+000	7	...........	0
	1083	108.4	5.83169E-001	2.21280E-006	0.00000E+000	5.83006E-001	0.00000E+000	7	...........	0
	1086	108.7	5.86172E-001	2.30783E-006	0.00000E+000	5.86006E-001	0.00000E+000	7	...........	0
	1089	109	5.89275E-001	2.35451E-006	0.00000E+000	5.89006E-001	0.00000E+000	7	...........	0
	1092	109.3	5.92077E-001	2.37151E-006	0.00000E+000	5.92006E-001	0.00000E+000	7	...........	0
	1095	109.6	5.95080E-001	2.41086E-006	0.00000E+000	5.95006E-001	0.00000E+000	7	...........	0
	1098	109.9	5.98284E-001	2.47888E-006	0.00000E+000	5.98006E-001	0.00000E+000	7	...........	0
	1100	110.1	6.00186E-001	2.53322E-006	0.00000E+000	6.00006E-001	0.00000E+000	7	...........	0