File: LSV ZFO/ZFO_h400_light3.DTA
EXPLAIN
TAG	LSV
TITLE	LABEL	Linear Sweep Voltammetry	Test &Identifier
DATE	LABEL	7/5/2024	Date
TIME	LABEL	17:11:30	Time
NOTES	NOTES	1	&Notes...

PSTAT	PSTAT	L3FNano	Potentiostat
VINIT	POTEN	-5.00000E-001	F	&Initial E (V)
VFINAL	POTEN	6.00000E-001	F	&Final E (V)
SCANRATE	QUANT	9.99998E+000	&Scan Rate (mV/s)
STEPSIZE	QUANT	1.00000E+000	St&ep Size (mV)
IMODE	SELECTOR	0	I/E Range &Mode
IRANGE	QUANT	1.00000E+001	&Max Current (mA)
AREA	QUANT	1.00000E+000	Electrode &Area (cm^2)
ELECTRODETYPE	SELECTOR	0	Electrode Type
STRIPPING	TOGGLE	F	Used for Stripping
POLARITY	TOGGLE	F	Signal Polarity
CONDIT	TWOPARAM	F	1.50000E+001	0.00000E+000	Conditionin&g	Time(s)	E(V)
DELAY	TWOPARAM	F	3.00000E+001	0.00000E+000	Init. De&lay	Time(s)	Stab.(mV/s)
EQDELAY	QUANT	5.00000E+000	Equil. &Time (s)
IRCOMP	SELECTOR	0	IRCom&p
PFCOR	QUANT	5.00000E+001	PF Corr. (ohm)
SAMPLINGMODE	SELECTOR	0	Sampling &Mode
EOC	QUANT	0	Open Circuit (V)
PSTATMODEL	IQUANT	48	Pstat Model
PSTATSECTION	LABEL	IFC1000-07082	Pstat Section
PSTATSERIALNO	LABEL	07082	Pstat Serial Number
CTRLMODE	IQUANT	1	Control Mode
IESTAB	IQUANT	2	I/E Stability
CASPEED	IQUANT	2	Control Amp Speed
CONVENTION	IQUANT	1	Current Convention
ICHRANGE	IQUANT	2	Ich Range
ICHRANGEMODE	TOGGLE	F	Ich Auto Range
ICHOFFSETENABLE	TOGGLE	F	Ich Offset Enable
ICHOFFSET	QUANT	0	Ich Offset (V)
ICHFILTER	IQUANT	3	Ich Filter
VCHRANGE	IQUANT	2	Vch Range
VCHRANGEMODE	TOGGLE	T	Vch Auto Range
VCHOFFSETENABLE	TOGGLE	F	Vch Offset Enable
VCHOFFSET	QUANT	0	Vch Offset (V)
VCHFILTER	IQUANT	3	Vch Filter
IERANGELOWERLIMIT	IQUANT	4	I/E Range Lower Limit
IERANGEMODE	TOGGLE	T	I/E AutoRange
IERANGE	IQUANT	11	I/E Range
ACHSELECT	IQUANT	4	Ach Select
CABLEID	IQUANT	14	Cable ID
DCCALDATE	LABEL	7/3/2024	DC Calibration Date
ACCALDATE	LABEL	7/3/2024	AC Calibration Date
FRAMEWORKVERSION	QUANT	6.24	Framework Version
INSTRUMENTVERSION	LABEL	3.28	Instrument Version
CURVE	TABLE	1101
	Pt	T	Vf	Im	Vu	Sig	Ach	IERange	Over	Cycle
	#	s	V vs. Ref.	A	V	V	V	#	bits	#
	0	0.1	-5.00110E-001	-4.71743E-006	0.00000E+000	-4.99988E-001	0.00000E+000	11	...........	0
	3	0.4	-4.97107E-001	-9.34538E-006	0.00000E+000	-4.96988E-001	0.00000E+000	8	...........	0
	6	0.7	-4.94104E-001	-8.87868E-006	0.00000E+000	-4.93988E-001	0.00000E+000	8	...........	0
	9	1	-4.91101E-001	-8.45532E-006	0.00000E+000	-4.90988E-001	0.00000E+000	8	...........	0
	12	1.3	-4.87998E-001	-8.07196E-006	0.00000E+000	-4.87988E-001	0.00000E+000	8	...........	0
	15	1.6	-4.84995E-001	-7.64991E-006	0.00000E+000	-4.84988E-001	0.00000E+000	7	...........	0
	18	1.9	-4.82092E-001	-7.30348E-006	0.00000E+000	-4.81988E-001	0.00000E+000	7	...........	0
	21	2.2	-4.79089E-001	-6.94438E-006	0.00000E+000	-4.78988E-001	0.00000E+000	7	...........	0
	24	2.5	-4.76186E-001	-6.69331E-006	0.00000E+000	-4.75987E-001	0.00000E+000	7	...........	0
	27	2.8	-4.73083E-001	-6.32888E-006	0.00000E+000	-4.72987E-001	0.00000E+000	7	...........	0
	30	3.1	-4.70080E-001	-6.10948E-006	0.00000E+000	-4.69987E-001	0.00000E+000	7	...........	0
	33	3.4	-4.67077E-001	-5.79673E-006	0.00000E+000	-4.66987E-001	0.00000E+000	7	...........	0
	36	3.7	-4.64174E-001	-5.52099E-006	0.00000E+000	-4.63987E-001	0.00000E+000	7	...........	0
	39	4	-4.61171E-001	-5.30893E-006	0.00000E+000	-4.60987E-001	0.00000E+000	7	...........	0
	42	4.3	-4.58068E-001	-5.06486E-006	0.00000E+000	-4.57987E-001	0.00000E+000	7	...........	0
	45	4.6	-4.55165E-001	-4.81380E-006	0.00000E+000	-4.54987E-001	0.00000E+000	7	...........	0
	48	4.9	-4.52062E-001	-4.56006E-006	0.00000E+000	-4.51987E-001	0.00000E+000	7	...........	0
	51	5.2	-4.49159E-001	-4.38201E-006	0.00000E+000	-4.48986E-001	0.00000E+000	7	...........	0
	54	5.5	-4.46156E-001	-4.17395E-006	0.00000E+000	-4.45986E-001	0.00000E+000	7	...........	0
	57	5.8	-4.43153E-001	-3.97990E-006	0.00000E+000	-4.42986E-001	0.00000E+000	7	...........	0
	60	6.1	-4.40150E-001	-3.84186E-006	0.00000E+000	-4.39986E-001	0.00000E+000	7	...........	0
	63	6.4	-4.37147E-001	-3.69982E-006	0.00000E+000	-4.36986E-001	0.00000E+000	7	...........	0
	66	6.7	-4.34144E-001	-3.54111E-006	0.00000E+000	-4.33986E-001	0.00000E+000	7	...........	0
	69	7	-4.31141E-001	-3.32905E-006	0.00000E+000	-4.30986E-001	0.00000E+000	7	...........	0
	72	7.3	-4.28238E-001	-3.20735E-006	0.00000E+000	-4.27986E-001	0.00000E+000	7	...........	0
	75	7.6	-4.25135E-001	-3.04864E-006	0.00000E+000	-4.24985E-001	0.00000E+000	7	...........	0
	78	7.9	-4.22032E-001	-2.89860E-006	0.00000E+000	-4.21985E-001	0.00000E+000	7	...........	0
	81	8.2	-4.19029E-001	-2.78157E-006	0.00000E+000	-4.18985E-001	0.00000E+000	7	...........	0
	84	8.5	-4.16126E-001	-2.67988E-006	0.00000E+000	-4.15985E-001	0.00000E+000	7	...........	0
	87	8.8	-4.13123E-001	-2.46582E-006	0.00000E+000	-4.12985E-001	0.00000E+000	7	...........	0
	90	9.1	-4.10120E-001	-2.45982E-006	0.00000E+000	-4.09985E-001	0.00000E+000	7	...........	0
	93	9.4	-4.07217E-001	-2.25643E-006	0.00000E+000	-4.06985E-001	0.00000E+000	7	...........	0
	96	9.7	-4.04114E-001	-2.18641E-006	0.00000E+000	-4.03985E-001	0.00000E+000	7	...........	0
	99	10	-4.01211E-001	-2.11205E-006	0.00000E+000	-4.00984E-001	0.00000E+000	7	...........	0
	102	10.3	-3.98108E-001	-1.95001E-006	0.00000E+000	-3.97984E-001	0.00000E+000	7	...........	0
	105	10.6	-3.95105E-001	-1.95401E-006	0.00000E+000	-3.94984E-001	0.00000E+000	7	...........	0
	108	10.9	-3.92102E-001	-1.79330E-006	0.00000E+000	-3.91984E-001	0.00000E+000	7	...........	0
	111	11.2	-3.89199E-001	-1.62092E-006	0.00000E+000	-3.88984E-001	0.00000E+000	7	...........	0
	114	11.5	-3.86096E-001	-1.50289E-006	0.00000E+000	-3.85984E-001	0.00000E+000	7	...........	0
	117	11.8	-3.83093E-001	-1.38885E-006	0.00000E+000	-3.82984E-001	0.00000E+000	7	...........	0
	120	12.1	-3.80090E-001	-1.34151E-006	0.00000E+000	-3.79984E-001	0.00000E+000	7	...........	0
	123	12.4	-3.77187E-001	-1.25015E-006	0.00000E+000	-3.76983E-001	0.00000E+000	7	...........	0
	126	12.7	-3.74084E-001	-1.10544E-006	0.00000E+000	-3.73983E-001	0.00000E+000	7	...........	0
	129	13	-3.71081E-001	-1.09577E-006	0.00000E+000	-3.70983E-001	0.00000E+000	7	...........	0
	132	13.3	-3.68078E-001	-1.05776E-006	0.00000E+000	-3.67983E-001	0.00000E+000	7	...........	0
	135	13.6	-3.65175E-001	-9.87744E-007	0.00000E+000	-3.64983E-001	0.00000E+000	7	...........	0
	138	13.9	-3.62072E-001	-1.08644E-006	0.00000E+000	-3.61983E-001	0.00000E+000	7	...........	0
	141	14.2	-3.59169E-001	-1.06910E-006	0.00000E+000	-3.58983E-001	0.00000E+000	7	...........	0
	144	14.5	-3.56066E-001	-1.02142E-006	0.00000E+000	-3.55983E-001	0.00000E+000	7	...........	0
	147	14.8	-3.53063E-001	-8.97719E-007	0.00000E+000	-3.52982E-001	0.00000E+000	7	...........	0
	150	15.1	-3.50160E-001	-8.92051E-007	0.00000E+000	-3.49982E-001	0.00000E+000	7	...........	0
	153	15.4	-3.47057E-001	-7.10001E-007	0.00000E+000	-3.46982E-001	0.00000E+000	7	...........	0
	156	15.7	-3.44054E-001	-6.96331E-007	0.00000E+000	-3.43982E-001	0.00000E+000	7	...........	0
	159	16	-3.41151E-001	-8.19031E-007	0.00000E+000	-3.40982E-001	0.00000E+000	7	...........	0
	162	16.3	-3.38048E-001	-7.41343E-007	0.00000E+000	-3.37982E-001	0.00000E+000	7	...........	0
	165	16.6	-3.35145E-001	-5.77631E-007	0.00000E+000	-3.34982E-001	0.00000E+000	7	...........	0
	168	16.9	-3.32042E-001	-6.75658E-007	0.00000E+000	-3.31982E-001	0.00000E+000	7	...........	0
	171	17.2	-3.29039E-001	-4.70268E-007	0.00000E+000	-3.28982E-001	0.00000E+000	7	...........	0
	174	17.5	-3.26137E-001	-2.13531E-007	0.00000E+000	-3.25981E-001	0.00000E+000	7	...........	0
	177	17.8	-3.23134E-001	-1.77855E-007	0.00000E+000	-3.22981E-001	0.00000E+000	7	...........	0
	180	18.1	-3.20030E-001	-3.66240E-007	0.00000E+000	-3.19981E-001	0.00000E+000	7	...........	0
	183	18.4	-3.17027E-001	-3.67240E-007	0.00000E+000	-3.16981E-001	0.00000E+000	7	...........	0
	186	18.7	-3.14125E-001	-3.20561E-007	0.00000E+000	-3.13981E-001	0.00000E+000	7	...........	0
	189	19	-3.11122E-001	-2.19200E-007	0.00000E+000	-3.10981E-001	0.00000E+000	7	...........	0
	192	19.3	-3.08018E-001	-2.66546E-007	0.00000E+000	-3.07981E-001	0.00000E+000	7	...........	0
	195	19.6	-3.05015E-001	-5.98224E-008	0.00000E+000	-3.04981E-001	0.00000E+000	7	...........	0
	198	19.9	-3.02013E-001	4.05385E-008	0.00000E+000	-3.01980E-001	0.00000E+000	7	...........	0
	201	20.2	-2.99210E-001	-1.17171E-007	0.00000E+000	-2.98980E-001	0.00000E+000	7	...........	0
	204	20.5	-2.96007E-001	-7.80809E-009	0.00000E+000	-2.95980E-001	0.00000E+000	7	...........	0
	207	20.8	-2.93104E-001	-1.84777E-008	0.00000E+000	-2.92980E-001	0.00000E+000	7	...........	0
	210	21.1	-2.90101E-001	-4.88194E-008	0.00000E+000	-2.89980E-001	0.00000E+000	7	...........	0
	213	21.4	-2.87098E-001	-1.39844E-007	0.00000E+000	-2.86980E-001	0.00000E+000	7	...........	0
	216	21.7	-2.84195E-001	-7.28259E-008	0.00000E+000	-2.83980E-001	0.00000E+000	7	...........	0
	219	22	-2.81092E-001	-7.71605E-008	0.00000E+000	-2.80980E-001	0.00000E+000	7	...........	0
	222	22.3	-2.78089E-001	3.68709E-008	0.00000E+000	-2.77979E-001	0.00000E+000	7	...........	0
	225	22.6	-2.75086E-001	-1.00834E-007	0.00000E+000	-2.74979E-001	0.00000E+000	7	...........	0
	228	22.9	-2.72083E-001	-3.68161E-008	0.00000E+000	-2.71979E-001	0.00000E+000	7	...........	0
	231	23.2	-2.69080E-001	3.15361E-008	0.00000E+000	-2.68979E-001	0.00000E+000	7	...........	0
	234	23.5	-2.66077E-001	2.02583E-007	0.00000E+000	-2.65979E-001	0.00000E+000	7	...........	0
	237	23.8	-2.63074E-001	3.27617E-007	0.00000E+000	-2.62979E-001	0.00000E+000	7	...........	0
	240	24.1	-2.59971E-001	3.13614E-007	0.00000E+000	-2.59979E-001	0.00000E+000	7	...........	0
	243	24.4	-2.57168E-001	6.65043E-007	0.00000E+000	-2.56979E-001	0.00000E+000	7	...........	0
	246	24.7	-2.53865E-001	5.69350E-007	0.00000E+000	-2.53978E-001	0.00000E+000	7	...........	0
	249	25	-2.50962E-001	6.95052E-007	0.00000E+000	-2.50978E-001	0.00000E+000	7	...........	0
	252	25.3	-2.48059E-001	7.41398E-007	0.00000E+000	-2.47978E-001	0.00000E+000	7	...........	0
	255	25.6	-2.45056E-001	9.01108E-007	0.00000E+000	-2.44978E-001	0.00000E+000	7	...........	0
	258	25.9	-2.42083E-001	8.85771E-007	0.00000E+000	-2.41978E-001	0.00000E+000	7	...........	0
	261	26.2	-2.39100E-001	8.61431E-007	0.00000E+000	-2.38978E-001	0.00000E+000	7	...........	0
	264	26.5	-2.36117E-001	8.89438E-007	0.00000E+000	-2.35978E-001	0.00000E+000	7	...........	0
	267	26.8	-2.33064E-001	1.00714E-006	0.00000E+000	-2.32978E-001	0.00000E+000	7	...........	0
	270	27.1	-2.30091E-001	8.79436E-007	0.00000E+000	-2.29977E-001	0.00000E+000	7	...........	0
	273	27.4	-2.27068E-001	9.01108E-007	0.00000E+000	-2.26977E-001	0.00000E+000	7	...........	0
	276	27.7	-2.24055E-001	1.08316E-006	0.00000E+000	-2.23977E-001	0.00000E+000	7	...........	0
	279	28	-2.21082E-001	7.63737E-007	0.00000E+000	-2.20977E-001	0.00000E+000	7	...........	0
	282	28.3	-2.18069E-001	5.41009E-007	0.00000E+000	-2.17977E-001	0.00000E+000	7	...........	0
	285	28.6	-2.15106E-001	3.62294E-007	0.00000E+000	-2.14977E-001	0.00000E+000	7	...........	0
	288	28.9	-2.12104E-001	4.21977E-007	0.00000E+000	-2.11977E-001	0.00000E+000	7	...........	0
	291	29.2	-2.09111E-001	5.17670E-007	0.00000E+000	-2.08977E-001	0.00000E+000	7	...........	0
	294	29.5	-2.06098E-001	3.98970E-007	0.00000E+000	-2.05976E-001	0.00000E+000	7	...........	0
	297	29.8	-2.03145E-001	5.42676E-007	0.00000E+000	-2.02976E-001	0.00000E+000	7	...........	0
	300	30.1	-2.00092E-001	6.88717E-007	0.00000E+000	-1.99976E-001	0.00000E+000	7	...........	0
	303	30.4	-1.97089E-001	4.98331E-007	0.00000E+000	-1.96976E-001	0.00000E+000	7	...........	0
	306	30.7	-1.94086E-001	6.84382E-007	0.00000E+000	-1.93976E-001	0.00000E+000	7	...........	0
	309	31	-1.91113E-001	9.07443E-007	0.00000E+000	-1.90976E-001	0.00000E+000	7	...........	0
	312	31.3	-1.88140E-001	1.22453E-006	0.00000E+000	-1.87976E-001	0.00000E+000	7	...........	0
	315	31.6	-1.85117E-001	9.38452E-007	0.00000E+000	-1.84976E-001	0.00000E+000	7	...........	0
	318	31.9	-1.82114E-001	5.18670E-007	0.00000E+000	-1.81975E-001	0.00000E+000	7	...........	0
	321	32.2	-1.79111E-001	6.64377E-007	0.00000E+000	-1.78975E-001	0.00000E+000	7	...........	0
	324	32.5	-1.76108E-001	5.28339E-007	0.00000E+000	-1.75975E-001	0.00000E+000	7	...........	0
	327	32.8	-1.73095E-001	6.81381E-007	0.00000E+000	-1.72975E-001	0.00000E+000	7	...........	0
	330	33.1	-1.70082E-001	5.02332E-007	0.00000E+000	-1.69975E-001	0.00000E+000	7	...........	0
	333	33.4	-1.67129E-001	8.21420E-007	0.00000E+000	-1.67025E-001	0.00000E+000	7	...........	0
	336	33.7	-1.64156E-001	5.49678E-007	0.00000E+000	-1.64025E-001	0.00000E+000	7	...........	0
	339	34	-1.61133E-001	7.96413E-007	0.00000E+000	-1.61025E-001	0.00000E+000	7	...........	0
	342	34.3	-1.58140E-001	7.99414E-007	0.00000E+000	-1.58025E-001	0.00000E+000	7	...........	0
	345	34.6	-1.55157E-001	6.28033E-007	0.00000E+000	-1.55024E-001	0.00000E+000	7	...........	0
	348	34.9	-1.52154E-001	8.57096E-007	0.00000E+000	-1.52024E-001	0.00000E+000	7	...........	0
	351	35.2	-1.49191E-001	1.02114E-006	0.00000E+000	-1.49024E-001	0.00000E+000	7	...........	0
	354	35.5	-1.46158E-001	6.80048E-007	0.00000E+000	-1.46024E-001	0.00000E+000	7	...........	0
	357	35.8	-1.43165E-001	8.69766E-007	0.00000E+000	-1.43024E-001	0.00000E+000	7	...........	0
	360	36.1	-1.40192E-001	1.07082E-006	0.00000E+000	-1.40024E-001	0.00000E+000	7	...........	0
	363	36.4	-1.37169E-001	7.81742E-007	0.00000E+000	-1.37024E-001	0.00000E+000	7	...........	0
	366	36.7	-1.34166E-001	7.44732E-007	0.00000E+000	-1.34024E-001	0.00000E+000	7	...........	0
	369	37	-1.31163E-001	9.15779E-007	0.00000E+000	-1.31023E-001	0.00000E+000	7	...........	0
	372	37.3	-1.28160E-001	1.33589E-006	0.00000E+000	-1.28023E-001	0.00000E+000	7	...........	0
	375	37.6	-1.25167E-001	1.41692E-006	0.00000E+000	-1.25023E-001	0.00000E+000	7	...........	0
	378	37.9	-1.22184E-001	1.51394E-006	0.00000E+000	-1.22023E-001	0.00000E+000	7	...........	0
	381	38.2	-1.19211E-001	1.65598E-006	0.00000E+000	-1.19023E-001	0.00000E+000	7	...........	0
	384	38.5	-1.16138E-001	1.38191E-006	0.00000E+000	-1.16023E-001	0.00000E+000	7	...........	0
	387	38.8	-1.13165E-001	1.29655E-006	0.00000E+000	-1.13023E-001	0.00000E+000	7	...........	0
	390	39.1	-1.10162E-001	2.09444E-006	0.00000E+000	-1.10023E-001	0.00000E+000	7	...........	0
	393	39.4	-1.07169E-001	1.42525E-006	0.00000E+000	-1.07022E-001	0.00000E+000	7	...........	0
	396	39.7	-1.04166E-001	1.64765E-006	0.00000E+000	-1.04022E-001	0.00000E+000	7	...........	0
	399	40	-1.01173E-001	2.24081E-006	0.00000E+000	-1.01022E-001	0.00000E+000	7	...........	0
	402	40.3	-9.82001E-002	2.58024E-006	0.00000E+000	-9.80221E-002	0.00000E+000	7	...........	0
	405	40.6	-9.51271E-002	2.72961E-006	0.00000E+000	-9.50219E-002	0.00000E+000	7	...........	0
	408	40.9	-9.22342E-002	2.45187E-006	0.00000E+000	-9.20218E-002	0.00000E+000	7	...........	0
	411	41.2	-8.91411E-002	2.88332E-006	0.00000E+000	-8.90217E-002	0.00000E+000	7	...........	0
	414	41.5	-8.62082E-002	2.74328E-006	0.00000E+000	-8.60216E-002	0.00000E+000	7	...........	0
	417	41.8	-8.31652E-002	3.03069E-006	0.00000E+000	-8.30214E-002	0.00000E+000	7	...........	0
	420	42.1	-8.01722E-002	2.97701E-006	0.00000E+000	-8.00213E-002	0.00000E+000	7	...........	0
	423	42.4	-7.71292E-002	2.98902E-006	0.00000E+000	-7.70212E-002	0.00000E+000	7	...........	0
	426	42.7	-7.41562E-002	3.12239E-006	0.00000E+000	-7.40211E-002	0.00000E+000	7	...........	0
	429	43	-7.11532E-002	2.87999E-006	0.00000E+000	-7.10210E-002	0.00000E+000	7	...........	0
	432	43.3	-6.81702E-002	2.25915E-006	0.00000E+000	-6.80208E-002	0.00000E+000	7	...........	0
	435	43.6	-6.51672E-002	2.42586E-006	0.00000E+000	-6.50207E-002	0.00000E+000	7	...........	0
	438	43.9	-6.21342E-002	3.20341E-006	0.00000E+000	-6.20206E-002	0.00000E+000	7	...........	0
	441	44.2	-5.91312E-002	3.27543E-006	0.00000E+000	-5.90205E-002	0.00000E+000	7	...........	0
	444	44.5	-5.60982E-002	3.10205E-006	0.00000E+000	-5.60203E-002	0.00000E+000	7	...........	0
	447	44.8	-5.31353E-002	3.10438E-006	0.00000E+000	-5.30202E-002	0.00000E+000	7	...........	0
	450	45.1	-5.01723E-002	3.44414E-006	0.00000E+000	-5.00201E-002	0.00000E+000	7	...........	0
	453	45.4	-4.71093E-002	3.30243E-006	0.00000E+000	-4.70200E-002	0.00000E+000	7	...........	0
	456	45.7	-4.41263E-002	2.48354E-006	0.00000E+000	-4.40199E-002	0.00000E+000	7	...........	0
	459	46	-4.11533E-002	3.08171E-006	0.00000E+000	-4.10197E-002	0.00000E+000	7	...........	0
	462	46.3	-3.81103E-002	3.38479E-006	0.00000E+000	-3.80196E-002	0.00000E+000	7	...........	0
	465	46.6	-3.51273E-002	3.24442E-006	0.00000E+000	-3.50195E-002	0.00000E+000	7	...........	0
	468	46.9	-3.21444E-002	3.59952E-006	0.00000E+000	-3.20194E-002	0.00000E+000	7	...........	0
	471	47.2	-2.91514E-002	3.48182E-006	0.00000E+000	-2.90192E-002	0.00000E+000	7	...........	0
	474	47.5	-2.61184E-002	3.80891E-006	0.00000E+000	-2.60191E-002	0.00000E+000	7	...........	0
	477	47.8	-2.31091E-002	2.84264E-006	0.00000E+000	-2.30190E-002	0.00000E+000	7	...........	0
	480	48.1	-2.01282E-002	2.49688E-006	0.00000E+000	-2.00189E-002	0.00000E+000	7	...........	0
	483	48.4	-1.71242E-002	2.78896E-006	0.00000E+000	-1.70187E-002	0.00000E+000	7	...........	0
	486	48.7	-1.41182E-002	2.32250E-006	0.00000E+000	-1.40186E-002	0.00000E+000	7	...........	0
	489	49	-1.11142E-002	2.42386E-006	0.00000E+000	-1.10185E-002	0.00000E+000	7	...........	0
	492	49.3	-8.14225E-003	2.62225E-006	0.00000E+000	-8.01838E-003	0.00000E+000	7	...........	0
	495	49.6	-5.08621E-003	1.73600E-006	0.00000E+000	-5.01826E-003	0.00000E+000	7	...........	0
	498	49.9	-2.11625E-003	2.05276E-006	0.00000E+000	-2.01814E-003	0.00000E+000	7	...........	0
	501	50.2	8.69718E-004	1.72233E-006	0.00000E+000	9.81987E-004	0.00000E+000	7	...........	0
	504	50.5	3.87471E-003	1.81803E-006	0.00000E+000	3.98211E-003	0.00000E+000	7	...........	0
	507	50.8	6.87469E-003	1.46726E-006	0.00000E+000	6.98223E-003	0.00000E+000	7	...........	0
	510	51.1	9.88269E-003	2.35517E-006	0.00000E+000	9.98235E-003	0.00000E+000	7	...........	0
	513	51.4	1.28967E-002	2.41786E-006	0.00000E+000	1.29825E-002	0.00000E+000	7	...........	0
	516	51.7	1.59167E-002	2.67893E-006	0.00000E+000	1.59826E-002	0.00000E+000	7	...........	0
	519	52	1.88646E-002	2.65192E-006	0.00000E+000	1.89827E-002	0.00000E+000	7	...........	0
	522	52.3	2.18646E-002	2.32750E-006	0.00000E+000	2.19828E-002	0.00000E+000	7	...........	0
	525	52.6	2.48726E-002	1.61197E-006	0.00000E+000	2.49830E-002	0.00000E+000	7	...........	0
	528	52.9	2.79054E-002	2.44953E-006	0.00000E+000	2.79831E-002	0.00000E+000	7	...........	0
	531	53.2	3.08984E-002	2.95667E-006	0.00000E+000	3.09832E-002	0.00000E+000	7	...........	0
	534	53.5	3.38413E-002	1.92172E-006	0.00000E+000	3.39833E-002	0.00000E+000	7	...........	0
	537	53.8	3.69043E-002	1.67332E-006	0.00000E+000	3.69835E-002	0.00000E+000	7	...........	0
	540	54.1	3.98273E-002	1.71200E-006	0.00000E+000	3.99836E-002	0.00000E+000	7	...........	0
	543	54.4	4.28703E-002	2.16579E-006	0.00000E+000	4.29837E-002	0.00000E+000	7	...........	0
	546	54.7	4.58833E-002	1.60730E-006	0.00000E+000	4.59838E-002	0.00000E+000	7	...........	0
	549	55	4.88462E-002	1.79369E-006	0.00000E+000	4.89840E-002	0.00000E+000	7	...........	0
	552	55.3	5.18492E-002	1.99541E-006	0.00000E+000	5.19841E-002	0.00000E+000	7	...........	0
	555	55.6	5.48322E-002	1.65265E-006	0.00000E+000	5.49842E-002	0.00000E+000	7	...........	0
	558	55.9	5.78552E-002	1.63531E-006	0.00000E+000	5.79843E-002	0.00000E+000	7	...........	0
	561	56.2	6.08282E-002	1.74601E-006	0.00000E+000	6.09844E-002	0.00000E+000	7	...........	0
	564	56.5	6.38211E-002	2.25348E-006	0.00000E+000	6.39846E-002	0.00000E+000	7	...........	0
	567	56.8	6.68542E-002	2.08510E-006	0.00000E+000	6.69847E-002	0.00000E+000	7	...........	0
	570	57.1	6.98171E-002	2.75695E-006	0.00000E+000	6.99848E-002	0.00000E+000	7	...........	0
	573	57.4	7.28301E-002	2.00108E-006	0.00000E+000	7.29849E-002	0.00000E+000	7	...........	0
	576	57.7	7.58331E-002	1.85037E-006	0.00000E+000	7.59851E-002	0.00000E+000	7	...........	0
	579	58	7.88861E-002	1.15618E-006	0.00000E+000	7.89852E-002	0.00000E+000	7	...........	0
	582	58.3	8.18391E-002	1.14418E-006	0.00000E+000	8.19853E-002	0.00000E+000	7	...........	0
	585	58.6	8.49021E-002	3.25309E-006	0.00000E+000	8.49854E-002	0.00000E+000	7	...........	0
	588	58.9	8.78651E-002	3.56651E-006	0.00000E+000	8.79855E-002	0.00000E+000	7	...........	0
	591	59.2	9.08681E-002	4.51743E-006	0.00000E+000	9.09857E-002	0.00000E+000	7	...........	0
	594	59.5	9.38610E-002	5.45236E-006	0.00000E+000	9.39858E-002	0.00000E+000	7	...........	0
	597	59.8	9.68540E-002	5.44736E-006	0.00000E+000	9.69859E-002	0.00000E+000	7	...........	0
	600	60.1	9.98570E-002	5.80346E-006	0.00000E+000	9.99860E-002	0.00000E+000	7	...........	0
	603	60.4	1.02830E-001	4.00763E-006	0.00000E+000	1.02986E-001	0.00000E+000	7	...........	0
	606	60.7	1.05833E-001	2.72694E-006	0.00000E+000	1.05986E-001	0.00000E+000	7	...........	0
	609	61	1.08846E-001	2.33250E-006	0.00000E+000	1.08986E-001	0.00000E+000	7	...........	0
	612	61.3	1.11829E-001	1.67532E-006	0.00000E+000	1.11987E-001	0.00000E+000	7	...........	0
	615	61.6	1.14832E-001	1.34290E-006	0.00000E+000	1.14987E-001	0.00000E+000	7	...........	0
	618	61.9	1.17865E-001	1.57063E-006	0.00000E+000	1.17987E-001	0.00000E+000	7	...........	0
	621	62.2	1.20868E-001	1.74067E-006	0.00000E+000	1.20987E-001	0.00000E+000	7	...........	0
	624	62.5	1.23861E-001	3.50649E-006	0.00000E+000	1.23987E-001	0.00000E+000	7	...........	0
	627	62.8	1.26864E-001	2.70794E-006	0.00000E+000	1.26987E-001	0.00000E+000	7	...........	0
	630	63.1	1.29857E-001	2.21447E-006	0.00000E+000	1.29987E-001	0.00000E+000	7	...........	0
	633	63.4	1.32890E-001	3.09071E-006	0.00000E+000	1.32987E-001	0.00000E+000	7	...........	0
	636	63.7	1.35943E-001	3.72355E-006	0.00000E+000	1.35988E-001	0.00000E+000	7	...........	0
	639	64	1.38906E-001	4.17834E-006	0.00000E+000	1.38988E-001	0.00000E+000	7	...........	0
	642	64.3	1.41829E-001	2.35284E-006	0.00000E+000	1.41988E-001	0.00000E+000	7	...........	0
	645	64.6	1.44842E-001	2.34384E-006	0.00000E+000	1.44988E-001	0.00000E+000	7	...........	0
	648	64.9	1.47835E-001	1.63764E-006	0.00000E+000	1.47988E-001	0.00000E+000	7	...........	0
	651	65.2	1.50838E-001	2.00074E-006	0.00000E+000	1.50988E-001	0.00000E+000	7	...........	0
	654	65.5	1.53861E-001	1.77602E-006	0.00000E+000	1.53988E-001	0.00000E+000	7	...........	0
	657	65.8	1.56904E-001	2.47554E-006	0.00000E+000	1.56988E-001	0.00000E+000	7	...........	0
	660	66.1	1.59837E-001	1.66132E-006	0.00000E+000	1.59988E-001	0.00000E+000	7	...........	0
	663	66.4	1.62830E-001	1.44059E-006	0.00000E+000	1.62989E-001	0.00000E+000	7	...........	0
	666	66.7	1.65833E-001	1.74534E-006	0.00000E+000	1.65989E-001	0.00000E+000	7	...........	0
	669	67	1.68786E-001	2.16346E-006	0.00000E+000	1.68989E-001	0.00000E+000	7	...........	0
	672	67.3	1.71849E-001	1.79635E-006	0.00000E+000	1.71989E-001	0.00000E+000	7	...........	0
	675	67.6	1.74842E-001	2.20613E-006	0.00000E+000	1.74989E-001	0.00000E+000	7	...........	0
	678	67.9	1.77895E-001	3.55217E-006	0.00000E+000	1.77989E-001	0.00000E+000	7	...........	0
	681	68.2	1.80848E-001	6.19990E-006	0.00000E+000	1.80989E-001	0.00000E+000	7	...........	0
	684	68.5	1.83831E-001	6.60601E-006	0.00000E+000	1.83989E-001	0.00000E+000	7	...........	0
	687	68.8	1.86864E-001	7.24252E-006	0.00000E+000	1.86990E-001	0.00000E+000	7	...........	0
	690	69.1	1.89857E-001	5.20162E-006	0.00000E+000	1.89990E-001	0.00000E+000	7	...........	0
	693	69.4	1.92870E-001	4.78918E-006	0.00000E+000	1.92990E-001	0.00000E+000	7	...........	0
	696	69.7	1.95843E-001	6.05986E-006	0.00000E+000	1.95990E-001	0.00000E+000	7	...........	0
	699	70	1.98805E-001	3.28376E-006	0.00000E+000	1.98990E-001	0.00000E+000	7	...........	0
	702	70.3	2.01879E-001	2.29382E-006	0.00000E+000	2.01990E-001	0.00000E+000	7	...........	0
	705	70.6	2.04842E-001	2.74928E-006	0.00000E+000	2.04990E-001	0.00000E+000	7	...........	0
	708	70.9	2.07865E-001	3.42980E-006	0.00000E+000	2.07990E-001	0.00000E+000	7	...........	0
	711	71.2	2.10868E-001	3.30110E-006	0.00000E+000	2.10991E-001	0.00000E+000	7	...........	0
	714	71.5	2.13850E-001	3.76656E-006	0.00000E+000	2.13991E-001	0.00000E+000	7	...........	0
	717	71.8	2.16883E-001	5.64508E-006	0.00000E+000	2.16991E-001	0.00000E+000	7	...........	0
	720	72.1	2.19886E-001	7.42657E-006	0.00000E+000	2.19991E-001	0.00000E+000	7	...........	0
	723	72.4	2.22859E-001	8.68991E-006	0.00000E+000	2.22991E-001	0.00000E+000	7	...........	0
	726	72.7	2.25882E-001	9.03501E-006	0.00000E+000	2.25991E-001	0.00000E+000	7	...........	0
	729	73	2.28865E-001	8.94265E-006	0.00000E+000	2.28991E-001	0.00000E+000	7	...........	0
	732	73.3	2.31818E-001	9.40311E-006	0.00000E+000	2.31991E-001	0.00000E+000	7	...........	0
	735	73.6	2.34831E-001	9.78655E-006	0.00000E+000	2.34992E-001	0.00000E+000	7	...........	0
	738	73.9	2.37864E-001	9.73687E-006	0.00000E+000	2.37992E-001	0.00000E+000	7	...........	0
	741	74.2	2.40827E-001	9.53348E-006	0.00000E+000	2.40992E-001	0.00000E+000	7	...........	0
	744	74.5	2.43910E-001	9.94326E-006	0.00000E+000	2.43992E-001	0.00000E+000	7	...........	0
	747	74.8	2.46843E-001	9.82723E-006	0.00000E+000	2.46992E-001	0.00000E+000	7	...........	0
	750	75.1	2.49816E-001	8.23979E-006	0.00000E+000	2.49992E-001	0.00000E+000	7	...........	0
	753	75.4	2.52819E-001	5.36565E-006	0.00000E+000	2.52992E-001	0.00000E+000	8	...........	0
	756	75.7	2.55822E-001	4.73560E-006	0.00000E+000	2.55992E-001	0.00000E+000	8	...........	0
	759	76	2.58795E-001	4.19890E-006	0.00000E+000	2.58993E-001	0.00000E+000	8	...........	0
	762	76.3	2.61828E-001	3.76220E-006	0.00000E+000	2.61993E-001	0.00000E+000	8	...........	0
	765	76.6	2.64791E-001	4.30224E-006	0.00000E+000	2.64993E-001	0.00000E+000	8	...........	0
	768	76.9	2.68055E-001	3.59318E-006	0.00000E+000	2.67993E-001	0.00000E+000	7	.....h.....	0
	771	77.2	2.71058E-001	4.42225E-006	0.00000E+000	2.70993E-001	0.00000E+000	8	...........	0
	774	77.5	2.74061E-001	4.42208E-006	0.00000E+000	2.73993E-001	0.00000E+000	7	.....h.....	0
	777	77.8	2.77064E-001	4.32891E-006	0.00000E+000	2.76993E-001	0.00000E+000	8	...........	0
	780	78.1	2.80067E-001	6.01318E-006	0.00000E+000	2.79993E-001	0.00000E+000	7	.....h.....	0
	783	78.4	2.83070E-001	8.07241E-006	0.00000E+000	2.82993E-001	0.00000E+000	7	.....h.....	0
	786	78.7	2.86073E-001	6.81440E-006	0.00000E+000	2.85994E-001	0.00000E+000	7	.....h.....	0
	789	79	2.89076E-001	6.04285E-006	0.00000E+000	2.88994E-001	0.00000E+000	7	.....h.....	0
	792	79.3	2.92079E-001	5.95569E-006	0.00000E+000	2.91994E-001	0.00000E+000	8	...........	0
	795	79.6	2.95082E-001	5.11896E-006	0.00000E+000	2.94994E-001	0.00000E+000	8	...........	0
	798	79.9	2.97985E-001	7.47580E-006	0.00000E+000	2.97994E-001	0.00000E+000	8	...........	0
	801	80.2	3.00988E-001	8.75255E-006	0.00000E+000	3.00994E-001	0.00000E+000	8	...........	0
	804	80.5	3.04091E-001	1.20328E-005	0.00000E+000	3.03994E-001	0.00000E+000	8	...........	0
	807	80.8	3.06994E-001	1.21228E-005	0.00000E+000	3.06994E-001	0.00000E+000	8	...........	0
	810	81.1	3.10097E-001	1.01793E-005	0.00000E+000	3.09995E-001	0.00000E+000	8	...........	0
	813	81.4	3.13100E-001	1.09094E-005	0.00000E+000	3.12995E-001	0.00000E+000	8	...........	0
	816	81.7	3.16003E-001	1.44563E-005	0.00000E+000	3.15995E-001	0.00000E+000	8	...........	0
	819	82	3.19106E-001	1.56630E-005	0.00000E+000	3.18995E-001	0.00000E+000	8	...........	0
	822	82.3	3.22109E-001	1.52763E-005	0.00000E+000	3.21995E-001	0.00000E+000	8	...........	0
	825	82.6	3.25112E-001	1.09265E-005	0.00000E+000	3.24995E-001	0.00000E+000	7	....ih..i..	0
	828	82.9	3.28115E-001	1.37362E-005	0.00000E+000	3.27995E-001	0.00000E+000	8	...........	0
	831	83.2	3.31118E-001	1.03993E-005	0.00000E+000	3.30995E-001	0.00000E+000	8	...........	0
	834	83.5	3.34121E-001	9.98597E-006	0.00000E+000	3.33996E-001	0.00000E+000	8	...........	0
	837	83.8	3.37024E-001	8.95923E-006	0.00000E+000	3.36996E-001	0.00000E+000	8	...........	0
	840	84.1	3.39926E-001	9.71262E-006	0.00000E+000	3.39996E-001	0.00000E+000	8	...........	0
	843	84.4	3.43130E-001	1.02927E-005	0.00000E+000	3.42996E-001	0.00000E+000	8	...........	0
	846	84.7	3.46033E-001	1.15594E-005	0.00000E+000	3.45996E-001	0.00000E+000	8	...........	0
	849	85	3.49036E-001	1.11694E-005	0.00000E+000	3.48996E-001	0.00000E+000	8	...........	0
	852	85.3	3.52039E-001	1.16861E-005	0.00000E+000	3.51996E-001	0.00000E+000	8	...........	0
	855	85.6	3.55042E-001	1.26128E-005	0.00000E+000	3.54996E-001	0.00000E+000	8	...........	0
	858	85.9	3.58145E-001	1.19061E-005	0.00000E+000	3.57997E-001	0.00000E+000	8	...........	0
	861	86.2	3.61047E-001	1.25261E-005	0.00000E+000	3.60997E-001	0.00000E+000	8	...........	0
	864	86.5	3.64050E-001	1.30262E-005	0.00000E+000	3.63997E-001	0.00000E+000	8	...........	0
	867	86.8	3.67053E-001	1.25461E-005	0.00000E+000	3.66997E-001	0.00000E+000	8	...........	0
	870	87.1	3.70056E-001	1.37429E-005	0.00000E+000	3.69997E-001	0.00000E+000	8	...........	0
	873	87.4	3.73160E-001	1.37629E-005	0.00000E+000	3.72997E-001	0.00000E+000	8	...........	0
	876	87.7	3.76162E-001	1.54063E-005	0.00000E+000	3.75997E-001	0.00000E+000	8	...........	0
	879	88	3.79065E-001	1.52930E-005	0.00000E+000	3.78997E-001	0.00000E+000	8	...........	0
	882	88.3	3.82169E-001	1.54297E-005	0.00000E+000	3.81998E-001	0.00000E+000	8	...........	0
	885	88.6	3.85071E-001	1.75865E-005	0.00000E+000	3.84998E-001	0.00000E+000	8	...........	0
	888	88.9	3.88174E-001	1.67798E-005	0.00000E+000	3.87998E-001	0.00000E+000	8	...........	0
	891	89.2	3.91077E-001	1.78399E-005	0.00000E+000	3.90998E-001	0.00000E+000	8	...........	0
	894	89.5	3.94080E-001	1.96800E-005	0.00000E+000	3.93998E-001	0.00000E+000	8	...........	0
	897	89.8	3.97183E-001	1.97867E-005	0.00000E+000	3.96998E-001	0.00000E+000	8	...........	0
	900	90.1	4.00287E-001	2.11601E-005	0.00000E+000	3.99998E-001	0.00000E+000	8	...........	0
	903	90.4	4.03189E-001	2.15268E-005	0.00000E+000	4.02998E-001	0.00000E+000	8	...........	0
	906	90.7	4.06092E-001	2.19801E-005	0.00000E+000	4.05999E-001	0.00000E+000	8	...........	0
	909	91	4.09195E-001	2.47537E-005	0.00000E+000	4.08999E-001	0.00000E+000	8	...........	0
	912	91.3	4.12098E-001	2.57071E-005	0.00000E+000	4.11999E-001	0.00000E+000	8	...........	0
	915	91.6	4.15101E-001	2.71938E-005	0.00000E+000	4.14999E-001	0.00000E+000	8	...........	0
	918	91.9	4.18104E-001	3.02207E-005	0.00000E+000	4.17999E-001	0.00000E+000	8	...........	0
	921	92.2	4.21107E-001	3.49310E-005	0.00000E+000	4.20999E-001	0.00000E+000	8	...........	0
	924	92.5	4.24210E-001	3.64645E-005	0.00000E+000	4.23999E-001	0.00000E+000	8	...........	0
	927	92.8	4.27113E-001	3.51111E-005	0.00000E+000	4.26999E-001	0.00000E+000	8	...........	0
	930	93.1	4.30116E-001	3.78246E-005	0.00000E+000	4.30000E-001	0.00000E+000	8	...........	0
	933	93.4	4.33119E-001	3.87880E-005	0.00000E+000	4.33000E-001	0.00000E+000	8	...........	0
	936	93.7	4.36122E-001	4.04681E-005	0.00000E+000	4.36000E-001	0.00000E+000	8	...........	0
	939	94	4.39225E-001	4.11715E-005	0.00000E+000	4.39000E-001	0.00000E+000	8	...........	0
	942	94.3	4.42128E-001	4.28716E-005	0.00000E+000	4.42000E-001	0.00000E+000	8	...........	0
	945	94.6	4.45031E-001	4.15282E-005	0.00000E+000	4.45000E-001	0.00000E+000	8	...........	0
	948	94.9	4.48134E-001	4.24582E-005	0.00000E+000	4.48000E-001	0.00000E+000	8	...........	0
	951	95.2	4.51137E-001	4.47084E-005	0.00000E+000	4.51000E-001	0.00000E+000	8	...........	0
	954	95.5	4.54140E-001	4.71152E-005	0.00000E+000	4.54001E-001	0.00000E+000	8	...........	0
	957	95.8	4.57143E-001	4.71686E-005	0.00000E+000	4.57001E-001	0.00000E+000	8	...........	0
	960	96.1	4.60046E-001	4.59885E-005	0.00000E+000	4.60001E-001	0.00000E+000	8	...........	0
	963	96.4	4.63149E-001	4.91954E-005	0.00000E+000	4.63001E-001	0.00000E+000	8	...........	0
	966	96.7	4.66052E-001	4.67385E-005	0.00000E+000	4.66001E-001	0.00000E+000	8	...........	0
	969	97	4.69055E-001	4.47951E-005	0.00000E+000	4.69001E-001	0.00000E+000	8	...........	0
	972	97.3	4.72158E-001	4.44750E-005	0.00000E+000	4.72001E-001	0.00000E+000	8	...........	0
	975	97.6	4.75161E-001	4.58451E-005	0.00000E+000	4.75001E-001	0.00000E+000	8	...........	0
	978	97.9	4.78164E-001	4.92954E-005	0.00000E+000	4.78001E-001	0.00000E+000	8	...........	0
	981	98.2	4.81067E-001	5.14955E-005	0.00000E+000	4.81002E-001	0.00000E+000	8	...........	0
	984	98.5	4.84170E-001	5.14989E-005	0.00000E+000	4.84002E-001	0.00000E+000	8	...........	0
	987	98.8	4.87073E-001	5.09388E-005	0.00000E+000	4.87002E-001	0.00000E+000	8	...........	0
	990	99.1	4.90176E-001	5.42491E-005	0.00000E+000	4.90002E-001	0.00000E+000	8	...........	0
	993	99.4	4.93079E-001	5.52325E-005	0.00000E+000	4.93002E-001	0.00000E+000	8	...........	0
	996	99.7	4.96082E-001	5.58725E-005	0.00000E+000	4.96002E-001	0.00000E+000	8	...........	0
	999	100	4.99085E-001	5.76060E-005	0.00000E+000	4.99002E-001	0.00000E+000	8	...........	0
	1002	100.3	5.02188E-001	5.96328E-005	0.00000E+000	5.02002E-001	0.00000E+000	8	...........	0
	1005	100.6	5.05091E-001	6.15996E-005	0.00000E+000	5.05003E-001	0.00000E+000	8	...........	0
	1008	100.9	5.08094E-001	6.14962E-005	0.00000E+000	5.08003E-001	0.00000E+000	8	...........	0
	1011	101.2	5.11097E-001	6.33997E-005	0.00000E+000	5.11003E-001	0.00000E+000	8	...........	0
	1014	101.5	5.14100E-001	6.42664E-005	0.00000E+000	5.14003E-001	0.00000E+000	8	...........	0
	1017	101.8	5.17203E-001	6.72400E-005	0.00000E+000	5.17003E-001	0.00000E+000	8	...........	0
	1020	102.1	5.20206E-001	6.85334E-005	0.00000E+000	5.20003E-001	0.00000E+000	8	...........	0
	1023	102.4	5.23109E-001	7.10236E-005	0.00000E+000	5.23003E-001	0.00000E+000	8	...........	0
	1026	102.7	5.26112E-001	7.38471E-005	0.00000E+000	5.26003E-001	0.00000E+000	8	...........	0
	1029	103	5.29015E-001	7.59006E-005	0.00000E+000	5.29004E-001	0.00000E+000	8	...........	0
	1032	103.3	5.32118E-001	7.65540E-005	0.00000E+000	5.32004E-001	0.00000E+000	8	...........	0
	1035	103.6	5.35121E-001	7.91608E-005	0.00000E+000	5.35004E-001	0.00000E+000	8	...........	0
	1038	103.9	5.38124E-001	8.38543E-005	0.00000E+000	5.38004E-001	0.00000E+000	9	...........	0
	1041	104.2	5.41127E-001	8.63181E-005	0.00000E+000	5.41004E-001	0.00000E+000	9	...........	0
	1044	104.5	5.44130E-001	8.66844E-005	0.00000E+000	5.44004E-001	0.00000E+000	9	...........	0
	1047	104.8	5.47133E-001	9.24776E-005	0.00000E+000	5.47004E-001	0.00000E+000	9	...........	0
	1050	105.1	5.50036E-001	9.47083E-005	0.00000E+000	5.50004E-001	0.00000E+000	9	...........	0
	1053	105.4	5.53139E-001	9.62065E-005	0.00000E+000	5.53005E-001	0.00000E+000	9	...........	0
	1056	105.7	5.56142E-001	9.68058E-005	0.00000E+000	5.56005E-001	0.00000E+000	9	...........	0
	1059	106	5.59145E-001	9.53742E-005	0.00000E+000	5.59005E-001	0.00000E+000	9	...........	0
	1062	106.3	5.62148E-001	9.93362E-005	0.00000E+000	5.62005E-001	0.00000E+000	9	...........	0
	1065	106.6	5.65251E-001	9.94361E-005	0.00000E+000	5.65005E-001	0.00000E+000	9	...........	0
	1068	106.9	5.68254E-001	1.07493E-004	0.00000E+000	5.68005E-001	0.00000E+000	9	...........	0
	1071	107.2	5.71257E-001	1.08359E-004	0.00000E+000	5.71005E-001	0.00000E+000	9	...........	0
	1074	107.5	5.74059E-001	1.08126E-004	0.00000E+000	5.74005E-001	0.00000E+000	9	...........	0
	1077	107.8	5.77163E-001	1.07260E-004	0.00000E+000	5.77006E-001	0.00000E+000	9	...........	0
	1080	108.1	5.80065E-001	1.12088E-004	0.00000E+000	5.80006E-001	0.00000E+000	9	...........	0
	1083	108.4	5.83169E-001	1.13120E-004	0.00000E+000	5.83006E-001	0.00000E+000	9	...........	0
	1086	108.7	5.86172E-001	1.16616E-004	0.00000E+000	5.86006E-001	0.00000E+000	9	...........	0
	1089	109	5.89074E-001	1.19712E-004	0.00000E+000	5.89006E-001	0.00000E+000	9	...........	0
	1092	109.3	5.92077E-001	1.21477E-004	0.00000E+000	5.92006E-001	0.00000E+000	9	...........	0
	1095	109.6	5.95181E-001	1.27437E-004	0.00000E+000	5.95006E-001	0.00000E+000	9	...........	0
	1098	109.9	5.98184E-001	1.33729E-004	0.00000E+000	5.98006E-001	0.00000E+000	9	...........	0
	1100	110.1	6.00085E-001	1.37358E-004	0.00000E+000	6.00006E-001	0.00000E+000	9	...........	0