File: LSV ZFO/ZFO_dark.DTA
EXPLAIN
TAG	LSV
TITLE	LABEL	Linear Sweep Voltammetry	Test &Identifier
DATE	LABEL	7/5/2024	Date
TIME	LABEL	15:00:03	Time
NOTES	NOTES	1	&Notes...

PSTAT	PSTAT	L3FNano	Potentiostat
VINIT	POTEN	-5.00000E-001	F	&Initial E (V)
VFINAL	POTEN	6.00000E-001	F	&Final E (V)
SCANRATE	QUANT	9.99998E+000	&Scan Rate (mV/s)
STEPSIZE	QUANT	1.00000E+000	St&ep Size (mV)
IMODE	SELECTOR	0	I/E Range &Mode
IRANGE	QUANT	1.00000E+001	&Max Current (mA)
AREA	QUANT	1.00000E+000	Electrode &Area (cm^2)
ELECTRODETYPE	SELECTOR	0	Electrode Type
STRIPPING	TOGGLE	F	Used for Stripping
POLARITY	TOGGLE	F	Signal Polarity
CONDIT	TWOPARAM	F	1.50000E+001	0.00000E+000	Conditionin&g	Time(s)	E(V)
DELAY	TWOPARAM	F	3.00000E+001	0.00000E+000	Init. De&lay	Time(s)	Stab.(mV/s)
EQDELAY	QUANT	5.00000E+000	Equil. &Time (s)
IRCOMP	SELECTOR	0	IRCom&p
PFCOR	QUANT	5.00000E+001	PF Corr. (ohm)
SAMPLINGMODE	SELECTOR	0	Sampling &Mode
EOC	QUANT	0	Open Circuit (V)
PSTATMODEL	IQUANT	48	Pstat Model
PSTATSECTION	LABEL	IFC1000-07082	Pstat Section
PSTATSERIALNO	LABEL	07082	Pstat Serial Number
CTRLMODE	IQUANT	1	Control Mode
IESTAB	IQUANT	2	I/E Stability
CASPEED	IQUANT	2	Control Amp Speed
CONVENTION	IQUANT	1	Current Convention
ICHRANGE	IQUANT	2	Ich Range
ICHRANGEMODE	TOGGLE	F	Ich Auto Range
ICHOFFSETENABLE	TOGGLE	F	Ich Offset Enable
ICHOFFSET	QUANT	0	Ich Offset (V)
ICHFILTER	IQUANT	3	Ich Filter
VCHRANGE	IQUANT	2	Vch Range
VCHRANGEMODE	TOGGLE	T	Vch Auto Range
VCHOFFSETENABLE	TOGGLE	F	Vch Offset Enable
VCHOFFSET	QUANT	0	Vch Offset (V)
VCHFILTER	IQUANT	3	Vch Filter
IERANGELOWERLIMIT	IQUANT	4	I/E Range Lower Limit
IERANGEMODE	TOGGLE	T	I/E AutoRange
IERANGE	IQUANT	11	I/E Range
ACHSELECT	IQUANT	4	Ach Select
CABLEID	IQUANT	14	Cable ID
DCCALDATE	LABEL	7/3/2024	DC Calibration Date
ACCALDATE	LABEL	7/3/2024	AC Calibration Date
FRAMEWORKVERSION	QUANT	6.24	Framework Version
INSTRUMENTVERSION	LABEL	3.28	Instrument Version
CURVE	TABLE	1101
	Pt	T	Vf	Im	Vu	Sig	Ach	IERange	Over	Cycle
	#	s	V vs. Ref.	A	V	V	V	#	bits	#
	0	0.1	-4.99909E-001	5.26427E-006	0.00000E+000	-4.99988E-001	0.00000E+000	11	...........	0
	3	0.4	-4.96906E-001	-1.62817E-006	0.00000E+000	-4.96988E-001	0.00000E+000	8	...........	0
	6	0.7	-4.94004E-001	-1.40219E-006	0.00000E+000	-4.93988E-001	0.00000E+000	7	...........	0
	9	1	-4.91001E-001	-1.36518E-006	0.00000E+000	-4.90988E-001	0.00000E+000	7	...........	0
	12	1.3	-4.87998E-001	-1.29483E-006	0.00000E+000	-4.87988E-001	0.00000E+000	7	...........	0
	15	1.6	-4.84995E-001	-1.14179E-006	0.00000E+000	-4.84988E-001	0.00000E+000	7	...........	0
	18	1.9	-4.81992E-001	-1.05109E-006	0.00000E+000	-4.81988E-001	0.00000E+000	7	...........	0
	21	2.2	-4.78989E-001	-1.01242E-006	0.00000E+000	-4.78988E-001	0.00000E+000	7	...........	0
	24	2.5	-4.75886E-001	-9.30395E-007	0.00000E+000	-4.75987E-001	0.00000E+000	7	...........	0
	27	2.8	-4.72883E-001	-8.51040E-007	0.00000E+000	-4.72987E-001	0.00000E+000	7	...........	0
	30	3.1	-4.69980E-001	-7.91023E-007	0.00000E+000	-4.69987E-001	0.00000E+000	7	...........	0
	33	3.4	-4.66877E-001	-6.76992E-007	0.00000E+000	-4.66987E-001	0.00000E+000	7	...........	0
	36	3.7	-4.63974E-001	-6.12307E-007	0.00000E+000	-4.63987E-001	0.00000E+000	7	...........	0
	39	4	-4.60971E-001	-6.07639E-007	0.00000E+000	-4.60987E-001	0.00000E+000	7	...........	0
	42	4.3	-4.57968E-001	-5.59293E-007	0.00000E+000	-4.57987E-001	0.00000E+000	7	...........	0
	45	4.6	-4.54965E-001	-4.46595E-007	0.00000E+000	-4.54987E-001	0.00000E+000	7	...........	0
	48	4.9	-4.51962E-001	-3.99582E-007	0.00000E+000	-4.51987E-001	0.00000E+000	7	...........	0
	51	5.2	-4.49059E-001	-2.31870E-007	0.00000E+000	-4.48986E-001	0.00000E+000	7	...........	0
	54	5.5	-4.45956E-001	-1.67852E-007	0.00000E+000	-4.45986E-001	0.00000E+000	7	...........	0
	57	5.8	-4.42953E-001	-2.05862E-007	0.00000E+000	-4.42986E-001	0.00000E+000	7	...........	0
	60	6.1	-4.39950E-001	-2.21867E-007	0.00000E+000	-4.39986E-001	0.00000E+000	7	...........	0
	63	6.4	-4.37047E-001	-2.29202E-007	0.00000E+000	-4.36986E-001	0.00000E+000	7	...........	0
	66	6.7	-4.33944E-001	-2.63212E-007	0.00000E+000	-4.33986E-001	0.00000E+000	7	...........	0
	69	7	-4.30841E-001	-2.49541E-007	0.00000E+000	-4.30986E-001	0.00000E+000	7	...........	0
	72	7.3	-4.27938E-001	-2.03862E-007	0.00000E+000	-4.27986E-001	0.00000E+000	7	...........	0
	75	7.6	-4.24935E-001	-1.64851E-007	0.00000E+000	-4.24985E-001	0.00000E+000	7	...........	0
	78	7.9	-4.21832E-001	-9.64991E-008	0.00000E+000	-4.21985E-001	0.00000E+000	7	...........	0
	81	8.2	-4.18929E-001	-5.91555E-008	0.00000E+000	-4.18985E-001	0.00000E+000	7	...........	0
	84	8.5	-4.16026E-001	-4.74857E-008	0.00000E+000	-4.15985E-001	0.00000E+000	7	...........	0
	87	8.8	-4.13023E-001	-8.01613E-008	0.00000E+000	-4.12985E-001	0.00000E+000	7	...........	0
	90	9.1	-4.09920E-001	-9.14977E-008	0.00000E+000	-4.09985E-001	0.00000E+000	7	...........	0
	93	9.4	-4.06917E-001	-1.81443E-008	0.00000E+000	-4.06985E-001	0.00000E+000	7	...........	0
	96	9.7	-4.03914E-001	-4.41514E-008	0.00000E+000	-4.03985E-001	0.00000E+000	7	...........	0
	99	10	-4.00911E-001	-3.44821E-008	0.00000E+000	-4.00984E-001	0.00000E+000	7	...........	0
	102	10.3	-3.97908E-001	-3.58158E-008	0.00000E+000	-3.97984E-001	0.00000E+000	7	...........	0
	105	10.6	-3.94905E-001	-4.51517E-008	0.00000E+000	-3.94984E-001	0.00000E+000	7	...........	0
	108	10.9	-3.91902E-001	-2.13986E-009	0.00000E+000	-3.91984E-001	0.00000E+000	7	...........	0
	111	11.2	-3.88899E-001	4.08719E-008	0.00000E+000	-3.88984E-001	0.00000E+000	7	...........	0
	114	11.5	-3.85796E-001	4.05385E-008	0.00000E+000	-3.85984E-001	0.00000E+000	7	...........	0
	117	11.8	-3.82893E-001	9.75542E-008	0.00000E+000	-3.82984E-001	0.00000E+000	7	...........	0
	120	12.1	-3.79990E-001	5.68764E-008	0.00000E+000	-3.79984E-001	0.00000E+000	7	...........	0
	123	12.4	-3.76987E-001	1.03556E-007	0.00000E+000	-3.76983E-001	0.00000E+000	7	...........	0
	126	12.7	-3.73884E-001	6.45451E-008	0.00000E+000	-3.73983E-001	0.00000E+000	7	...........	0
	129	13	-3.70881E-001	3.86179E-009	0.00000E+000	-3.70983E-001	0.00000E+000	7	...........	0
	132	13.3	-3.67878E-001	7.85490E-008	0.00000E+000	-3.67983E-001	0.00000E+000	7	...........	0
	135	13.6	-3.64875E-001	-4.47384E-009	0.00000E+000	-3.64983E-001	0.00000E+000	7	...........	0
	138	13.9	-3.61972E-001	-2.74802E-008	0.00000E+000	-3.61983E-001	0.00000E+000	7	...........	0
	141	14.2	-3.58969E-001	6.86261E-009	0.00000E+000	-3.58983E-001	0.00000E+000	7	...........	0
	144	14.5	-3.55966E-001	-1.31429E-008	0.00000E+000	-3.55983E-001	0.00000E+000	7	...........	0
	147	14.8	-3.52963E-001	1.38232E-007	0.00000E+000	-3.52982E-001	0.00000E+000	7	...........	0
	150	15.1	-3.49860E-001	1.36565E-007	0.00000E+000	-3.49982E-001	0.00000E+000	7	...........	0
	153	15.4	-3.46857E-001	1.34898E-007	0.00000E+000	-3.46982E-001	0.00000E+000	7	...........	0
	156	15.7	-3.43854E-001	1.72575E-007	0.00000E+000	-3.43982E-001	0.00000E+000	7	...........	0
	159	16	-3.40951E-001	9.82210E-008	0.00000E+000	-3.40982E-001	0.00000E+000	7	...........	0
	162	16.3	-3.37848E-001	4.28725E-008	0.00000E+000	-3.37982E-001	0.00000E+000	7	...........	0
	165	16.6	-3.34845E-001	7.48813E-008	0.00000E+000	-3.34982E-001	0.00000E+000	7	...........	0
	168	16.9	-3.31842E-001	1.12558E-007	0.00000E+000	-3.31982E-001	0.00000E+000	7	...........	0
	171	17.2	-3.28939E-001	1.24895E-007	0.00000E+000	-3.28982E-001	0.00000E+000	7	...........	0
	174	17.5	-3.25836E-001	1.88246E-007	0.00000E+000	-3.25981E-001	0.00000E+000	7	...........	0
	177	17.8	-3.22933E-001	2.05584E-007	0.00000E+000	-3.22981E-001	0.00000E+000	7	...........	0
	180	18.1	-3.19930E-001	1.78910E-007	0.00000E+000	-3.19981E-001	0.00000E+000	7	...........	0
	183	18.4	-3.16827E-001	1.91580E-007	0.00000E+000	-3.16981E-001	0.00000E+000	7	...........	0
	186	18.7	-3.13924E-001	1.76242E-007	0.00000E+000	-3.13981E-001	0.00000E+000	7	...........	0
	189	19	-3.10921E-001	1.75576E-007	0.00000E+000	-3.10981E-001	0.00000E+000	7	...........	0
	192	19.3	-3.07918E-001	1.86912E-007	0.00000E+000	-3.07981E-001	0.00000E+000	7	...........	0
	195	19.6	-3.04815E-001	1.46568E-007	0.00000E+000	-3.04981E-001	0.00000E+000	7	...........	0
	198	19.9	-3.01912E-001	1.55570E-007	0.00000E+000	-3.01980E-001	0.00000E+000	7	...........	0
	201	20.2	-2.98909E-001	1.37232E-007	0.00000E+000	-2.98980E-001	0.00000E+000	7	...........	0
	204	20.5	-2.95906E-001	1.13892E-007	0.00000E+000	-2.95980E-001	0.00000E+000	7	...........	0
	207	20.8	-2.93004E-001	9.45534E-008	0.00000E+000	-2.92980E-001	0.00000E+000	7	...........	0
	210	21.1	-2.89800E-001	1.35898E-007	0.00000E+000	-2.89980E-001	0.00000E+000	7	...........	0
	213	21.4	-2.86897E-001	1.13225E-007	0.00000E+000	-2.86980E-001	0.00000E+000	7	...........	0
	216	21.7	-2.83894E-001	1.08224E-007	0.00000E+000	-2.83980E-001	0.00000E+000	7	...........	0
	219	22	-2.80791E-001	1.11558E-007	0.00000E+000	-2.80980E-001	0.00000E+000	7	...........	0
	222	22.3	-2.77888E-001	1.72575E-007	0.00000E+000	-2.77979E-001	0.00000E+000	7	...........	0
	225	22.6	-2.74886E-001	1.25228E-007	0.00000E+000	-2.74979E-001	0.00000E+000	7	...........	0
	228	22.9	-2.71883E-001	1.65573E-007	0.00000E+000	-2.71979E-001	0.00000E+000	7	...........	0
	231	23.2	-2.68880E-001	1.26896E-007	0.00000E+000	-2.68979E-001	0.00000E+000	7	...........	0
	234	23.5	-2.65877E-001	1.85245E-007	0.00000E+000	-2.65979E-001	0.00000E+000	7	...........	0
	237	23.8	-2.62874E-001	3.07945E-007	0.00000E+000	-2.62979E-001	0.00000E+000	7	...........	0
	240	24.1	-2.59770E-001	2.86940E-007	0.00000E+000	-2.59979E-001	0.00000E+000	7	...........	0
	243	24.4	-2.56868E-001	2.49596E-007	0.00000E+000	-2.56979E-001	0.00000E+000	7	...........	0
	246	24.7	-2.53865E-001	2.73603E-007	0.00000E+000	-2.53978E-001	0.00000E+000	7	...........	0
	249	25	-2.50962E-001	2.34592E-007	0.00000E+000	-2.50978E-001	0.00000E+000	7	...........	0
	252	25.3	-2.47859E-001	1.49902E-007	0.00000E+000	-2.47978E-001	0.00000E+000	7	...........	0
	255	25.6	-2.44756E-001	1.70574E-007	0.00000E+000	-2.44978E-001	0.00000E+000	7	...........	0
	258	25.9	-2.41993E-001	1.43900E-007	0.00000E+000	-2.41978E-001	0.00000E+000	7	...........	0
	261	26.2	-2.39020E-001	7.38810E-008	0.00000E+000	-2.38978E-001	0.00000E+000	7	...........	0
	264	26.5	-2.36027E-001	7.45479E-008	0.00000E+000	-2.35978E-001	0.00000E+000	7	...........	0
	267	26.8	-2.33044E-001	1.07224E-007	0.00000E+000	-2.32978E-001	0.00000E+000	7	...........	0
	270	27.1	-2.30031E-001	9.25528E-008	0.00000E+000	-2.29977E-001	0.00000E+000	7	...........	0
	273	27.4	-2.27008E-001	1.06557E-007	0.00000E+000	-2.26977E-001	0.00000E+000	7	...........	0
	276	27.7	-2.24025E-001	1.03222E-007	0.00000E+000	-2.23977E-001	0.00000E+000	7	...........	0
	279	28	-2.21012E-001	9.48868E-008	0.00000E+000	-2.20977E-001	0.00000E+000	7	...........	0
	282	28.3	-2.18009E-001	7.22139E-008	0.00000E+000	-2.17977E-001	0.00000E+000	7	...........	0
	285	28.6	-2.15016E-001	1.53236E-007	0.00000E+000	-2.14977E-001	0.00000E+000	7	...........	0
	288	28.9	-2.12013E-001	9.05523E-008	0.00000E+000	-2.11977E-001	0.00000E+000	7	...........	0
	291	29.2	-2.09030E-001	1.68907E-007	0.00000E+000	-2.08977E-001	0.00000E+000	7	...........	0
	294	29.5	-2.06017E-001	1.55237E-007	0.00000E+000	-2.05976E-001	0.00000E+000	7	...........	0
	297	29.8	-2.03045E-001	1.81911E-007	0.00000E+000	-2.02976E-001	0.00000E+000	7	...........	0
	300	30.1	-2.00031E-001	1.80910E-007	0.00000E+000	-1.99976E-001	0.00000E+000	7	...........	0
	303	30.4	-1.97008E-001	1.26229E-007	0.00000E+000	-1.96976E-001	0.00000E+000	7	...........	0
	306	30.7	-1.94016E-001	1.80577E-007	0.00000E+000	-1.93976E-001	0.00000E+000	7	...........	0
	309	31	-1.91013E-001	1.80244E-007	0.00000E+000	-1.90976E-001	0.00000E+000	7	...........	0
	312	31.3	-1.88020E-001	1.67907E-007	0.00000E+000	-1.87976E-001	0.00000E+000	7	...........	0
	315	31.6	-1.85027E-001	1.62239E-007	0.00000E+000	-1.84976E-001	0.00000E+000	7	...........	0
	318	31.9	-1.82034E-001	1.54236E-007	0.00000E+000	-1.81975E-001	0.00000E+000	7	...........	0
	321	32.2	-1.79031E-001	2.04917E-007	0.00000E+000	-1.78975E-001	0.00000E+000	7	...........	0
	324	32.5	-1.76028E-001	1.33898E-007	0.00000E+000	-1.75975E-001	0.00000E+000	7	...........	0
	327	32.8	-1.73025E-001	1.42900E-007	0.00000E+000	-1.72975E-001	0.00000E+000	7	...........	0
	330	33.1	-1.70022E-001	1.99249E-007	0.00000E+000	-1.69975E-001	0.00000E+000	7	...........	0
	333	33.4	-1.67059E-001	1.40233E-007	0.00000E+000	-1.67025E-001	0.00000E+000	7	...........	0
	336	33.7	-1.64076E-001	1.52903E-007	0.00000E+000	-1.64025E-001	0.00000E+000	7	...........	0
	339	34	-1.61073E-001	1.43233E-007	0.00000E+000	-1.61025E-001	0.00000E+000	7	...........	0
	342	34.3	-1.58070E-001	1.32897E-007	0.00000E+000	-1.58025E-001	0.00000E+000	7	...........	0
	345	34.6	-1.55087E-001	1.20894E-007	0.00000E+000	-1.55024E-001	0.00000E+000	7	...........	0
	348	34.9	-1.52114E-001	1.61238E-007	0.00000E+000	-1.52024E-001	0.00000E+000	7	...........	0
	351	35.2	-1.49101E-001	1.24562E-007	0.00000E+000	-1.49024E-001	0.00000E+000	7	...........	0
	354	35.5	-1.46108E-001	1.52903E-007	0.00000E+000	-1.46024E-001	0.00000E+000	7	...........	0
	357	35.8	-1.43105E-001	8.32169E-008	0.00000E+000	-1.43024E-001	0.00000E+000	7	...........	0
	360	36.1	-1.40092E-001	1.49568E-007	0.00000E+000	-1.40024E-001	0.00000E+000	7	...........	0
	363	36.4	-1.37119E-001	9.02188E-008	0.00000E+000	-1.37024E-001	0.00000E+000	7	...........	0
	366	36.7	-1.34096E-001	1.13892E-007	0.00000E+000	-1.34024E-001	0.00000E+000	7	...........	0
	369	37	-1.31093E-001	1.35565E-007	0.00000E+000	-1.31023E-001	0.00000E+000	7	...........	0
	372	37.3	-1.28100E-001	8.98854E-008	0.00000E+000	-1.28023E-001	0.00000E+000	7	...........	0
	375	37.6	-1.25097E-001	9.08857E-008	0.00000E+000	-1.25023E-001	0.00000E+000	7	...........	0
	378	37.9	-1.22084E-001	6.45451E-008	0.00000E+000	-1.22023E-001	0.00000E+000	7	...........	0
	381	38.2	-1.19061E-001	7.08802E-008	0.00000E+000	-1.19023E-001	0.00000E+000	7	...........	0
	384	38.5	-1.16078E-001	9.72208E-008	0.00000E+000	-1.16023E-001	0.00000E+000	7	...........	0
	387	38.8	-1.13115E-001	8.45506E-008	0.00000E+000	-1.13023E-001	0.00000E+000	7	...........	0
	390	39.1	-1.10092E-001	7.35476E-008	0.00000E+000	-1.10023E-001	0.00000E+000	7	...........	0
	393	39.4	-1.07079E-001	6.68791E-008	0.00000E+000	-1.07022E-001	0.00000E+000	7	...........	0
	396	39.7	-1.04106E-001	6.95465E-008	0.00000E+000	-1.04022E-001	0.00000E+000	7	...........	0
	399	40	-1.01073E-001	7.55482E-008	0.00000E+000	-1.01022E-001	0.00000E+000	7	...........	0
	402	40.3	-9.80900E-002	6.25446E-008	0.00000E+000	-9.80221E-002	0.00000E+000	7	...........	0
	405	40.6	-9.50970E-002	7.65484E-008	0.00000E+000	-9.50219E-002	0.00000E+000	7	...........	0
	408	40.9	-9.21041E-002	8.35503E-008	0.00000E+000	-9.20218E-002	0.00000E+000	7	...........	0
	411	41.2	-8.91111E-002	1.24895E-007	0.00000E+000	-8.90217E-002	0.00000E+000	7	...........	0
	414	41.5	-8.60981E-002	6.02106E-008	0.00000E+000	-8.60216E-002	0.00000E+000	7	...........	0
	417	41.8	-8.30851E-002	3.65374E-008	0.00000E+000	-8.30214E-002	0.00000E+000	7	...........	0
	420	42.1	-8.00921E-002	6.92131E-008	0.00000E+000	-8.00213E-002	0.00000E+000	7	...........	0
	423	42.4	-7.70991E-002	4.88742E-008	0.00000E+000	-7.70212E-002	0.00000E+000	7	...........	0
	426	42.7	-7.40861E-002	5.22084E-008	0.00000E+000	-7.40211E-002	0.00000E+000	7	...........	0
	429	43	-7.10931E-002	1.05223E-007	0.00000E+000	-7.10210E-002	0.00000E+000	7	...........	0
	432	43.3	-6.80902E-002	4.35394E-008	0.00000E+000	-6.80208E-002	0.00000E+000	7	...........	0
	435	43.6	-6.50872E-002	5.18750E-008	0.00000E+000	-6.50207E-002	0.00000E+000	7	...........	0
	438	43.9	-6.20942E-002	8.25501E-008	0.00000E+000	-6.20206E-002	0.00000E+000	7	...........	0
	441	44.2	-5.90712E-002	9.65539E-008	0.00000E+000	-5.90205E-002	0.00000E+000	7	...........	0
	444	44.5	-5.60882E-002	6.58788E-008	0.00000E+000	-5.60203E-002	0.00000E+000	7	...........	0
	447	44.8	-5.30952E-002	6.72125E-008	0.00000E+000	-5.30202E-002	0.00000E+000	7	...........	0
	450	45.1	-5.00822E-002	6.45451E-008	0.00000E+000	-5.00201E-002	0.00000E+000	7	...........	0
	453	45.4	-4.70792E-002	3.88714E-008	0.00000E+000	-4.70200E-002	0.00000E+000	7	...........	0
	456	45.7	-4.40963E-002	4.32059E-008	0.00000E+000	-4.40199E-002	0.00000E+000	7	...........	0
	459	46	-4.10833E-002	9.42199E-008	0.00000E+000	-4.10197E-002	0.00000E+000	7	...........	0
	462	46.3	-3.80903E-002	4.82073E-008	0.00000E+000	-3.80196E-002	0.00000E+000	7	...........	0
	465	46.6	-3.50773E-002	5.52092E-008	0.00000E+000	-3.50195E-002	0.00000E+000	7	...........	0
	468	46.9	-3.20843E-002	6.55454E-008	0.00000E+000	-3.20194E-002	0.00000E+000	7	...........	0
	471	47.2	-2.90913E-002	3.38700E-008	0.00000E+000	-2.90192E-002	0.00000E+000	7	...........	0
	474	47.5	-2.60884E-002	7.02133E-008	0.00000E+000	-2.60191E-002	0.00000E+000	7	...........	0
	477	47.8	-2.30881E-002	4.62068E-008	0.00000E+000	-2.30190E-002	0.00000E+000	7	...........	0
	480	48.1	-2.01042E-002	8.12164E-008	0.00000E+000	-2.00189E-002	0.00000E+000	7	...........	0
	483	48.4	-1.70872E-002	9.62205E-008	0.00000E+000	-1.70187E-002	0.00000E+000	7	...........	0
	486	48.7	-1.40992E-002	3.45369E-008	0.00000E+000	-1.40186E-002	0.00000E+000	7	...........	0
	489	49	-1.11032E-002	1.27896E-007	0.00000E+000	-1.10185E-002	0.00000E+000	7	...........	0
	492	49.3	-8.08319E-003	6.02106E-008	0.00000E+000	-8.01838E-003	0.00000E+000	7	...........	0
	495	49.6	-5.08821E-003	1.05890E-007	0.00000E+000	-5.01826E-003	0.00000E+000	7	...........	0
	498	49.9	-2.10224E-003	6.28780E-008	0.00000E+000	-2.01814E-003	0.00000E+000	7	...........	0
	501	50.2	8.94743E-004	5.68764E-008	0.00000E+000	9.81987E-004	0.00000E+000	7	...........	0
	504	50.5	3.92376E-003	8.45506E-008	0.00000E+000	3.98211E-003	0.00000E+000	7	...........	0
	507	50.8	6.90172E-003	8.95520E-008	0.00000E+000	6.98223E-003	0.00000E+000	7	...........	0
	510	51.1	9.91172E-003	7.02133E-008	0.00000E+000	9.98235E-003	0.00000E+000	7	...........	0
	513	51.4	1.29067E-002	6.65457E-008	0.00000E+000	1.29825E-002	0.00000E+000	7	...........	0
	516	51.7	1.59087E-002	1.20561E-007	0.00000E+000	1.59826E-002	0.00000E+000	7	...........	0
	519	52	1.89067E-002	7.12136E-008	0.00000E+000	1.89827E-002	0.00000E+000	7	...........	0
	522	52.3	2.19267E-002	6.28780E-008	0.00000E+000	2.19828E-002	0.00000E+000	7	...........	0
	525	52.6	2.48936E-002	5.68764E-008	0.00000E+000	2.49830E-002	0.00000E+000	7	...........	0
	528	52.9	2.79354E-002	5.52092E-008	0.00000E+000	2.79831E-002	0.00000E+000	7	...........	0
	531	53.2	3.09384E-002	8.58843E-008	0.00000E+000	3.09832E-002	0.00000E+000	7	...........	0
	534	53.5	3.39414E-002	7.18805E-008	0.00000E+000	3.39833E-002	0.00000E+000	7	...........	0
	537	53.8	3.69344E-002	7.52147E-008	0.00000E+000	3.69835E-002	0.00000E+000	7	...........	0
	540	54.1	3.99574E-002	7.68818E-008	0.00000E+000	3.99836E-002	0.00000E+000	7	...........	0
	543	54.4	4.29404E-002	1.04890E-007	0.00000E+000	4.29837E-002	0.00000E+000	7	...........	0
	546	54.7	4.59333E-002	9.78876E-008	0.00000E+000	4.59838E-002	0.00000E+000	7	...........	0
	549	55	4.89363E-002	1.01555E-007	0.00000E+000	4.89840E-002	0.00000E+000	7	...........	0
	552	55.3	5.19293E-002	3.68709E-008	0.00000E+000	5.19841E-002	0.00000E+000	7	...........	0
	555	55.6	5.49323E-002	6.92131E-008	0.00000E+000	5.49842E-002	0.00000E+000	7	...........	0
	558	55.9	5.79253E-002	7.75487E-008	0.00000E+000	5.79843E-002	0.00000E+000	7	...........	0
	561	56.2	6.09383E-002	1.39232E-007	0.00000E+000	6.09844E-002	0.00000E+000	7	...........	0
	564	56.5	6.39413E-002	7.12136E-008	0.00000E+000	6.39846E-002	0.00000E+000	7	...........	0
	567	56.8	6.69442E-002	9.32197E-008	0.00000E+000	6.69847E-002	0.00000E+000	7	...........	0
	570	57.1	6.99472E-002	6.58788E-008	0.00000E+000	6.99848E-002	0.00000E+000	7	...........	0
	573	57.4	7.29402E-002	7.38810E-008	0.00000E+000	7.29849E-002	0.00000E+000	7	...........	0
	576	57.7	7.59132E-002	8.68846E-008	0.00000E+000	7.59851E-002	0.00000E+000	7	...........	0
	579	58	7.89362E-002	7.68818E-008	0.00000E+000	7.89852E-002	0.00000E+000	7	...........	0
	582	58.3	8.19292E-002	9.82210E-008	0.00000E+000	8.19853E-002	0.00000E+000	7	...........	0
	585	58.6	8.49322E-002	3.02024E-008	0.00000E+000	8.49854E-002	0.00000E+000	7	...........	0
	588	58.9	8.79351E-002	4.52065E-008	0.00000E+000	8.79855E-002	0.00000E+000	7	...........	0
	591	59.2	9.09381E-002	1.08224E-007	0.00000E+000	9.09857E-002	0.00000E+000	7	...........	0
	594	59.5	9.39411E-002	9.35531E-008	0.00000E+000	9.39858E-002	0.00000E+000	7	...........	0
	597	59.8	9.69441E-002	1.02556E-007	0.00000E+000	9.69859E-002	0.00000E+000	7	...........	0
	600	60.1	9.99371E-002	1.22561E-007	0.00000E+000	9.99860E-002	0.00000E+000	7	...........	0
	603	60.4	1.02920E-001	3.88714E-008	0.00000E+000	1.02986E-001	0.00000E+000	7	...........	0
	606	60.7	1.05943E-001	1.14225E-007	0.00000E+000	1.05986E-001	0.00000E+000	7	...........	0
	609	61	1.08926E-001	1.32230E-007	0.00000E+000	1.08986E-001	0.00000E+000	7	...........	0
	612	61.3	1.11929E-001	1.94914E-007	0.00000E+000	1.11987E-001	0.00000E+000	7	...........	0
	615	61.6	1.14932E-001	1.20561E-007	0.00000E+000	1.14987E-001	0.00000E+000	7	...........	0
	618	61.9	1.17935E-001	1.54570E-007	0.00000E+000	1.17987E-001	0.00000E+000	7	...........	0
	621	62.2	1.20938E-001	1.38899E-007	0.00000E+000	1.20987E-001	0.00000E+000	7	...........	0
	624	62.5	1.23931E-001	1.83578E-007	0.00000E+000	1.23987E-001	0.00000E+000	7	...........	0
	627	62.8	1.26944E-001	1.56237E-007	0.00000E+000	1.26987E-001	0.00000E+000	7	...........	0
	630	63.1	1.29947E-001	1.74242E-007	0.00000E+000	1.29987E-001	0.00000E+000	7	...........	0
	633	63.4	1.32940E-001	9.32197E-008	0.00000E+000	1.32987E-001	0.00000E+000	7	...........	0
	636	63.7	1.35933E-001	1.37899E-007	0.00000E+000	1.35988E-001	0.00000E+000	7	...........	0
	639	64	1.38946E-001	1.83244E-007	0.00000E+000	1.38988E-001	0.00000E+000	7	...........	0
	642	64.3	1.41939E-001	1.74575E-007	0.00000E+000	1.41988E-001	0.00000E+000	7	...........	0
	645	64.6	1.44932E-001	1.23228E-007	0.00000E+000	1.44988E-001	0.00000E+000	7	...........	0
	648	64.9	1.47945E-001	1.19227E-007	0.00000E+000	1.47988E-001	0.00000E+000	7	...........	0
	651	65.2	1.50948E-001	7.78821E-008	0.00000E+000	1.50988E-001	0.00000E+000	7	...........	0
	654	65.5	1.53951E-001	1.25895E-007	0.00000E+000	1.53988E-001	0.00000E+000	7	...........	0
	657	65.8	1.56954E-001	1.07890E-007	0.00000E+000	1.56988E-001	0.00000E+000	7	...........	0
	660	66.1	1.59957E-001	9.38865E-008	0.00000E+000	1.59988E-001	0.00000E+000	7	...........	0
	663	66.4	1.62950E-001	5.78766E-008	0.00000E+000	1.62989E-001	0.00000E+000	7	...........	0
	666	66.7	1.65953E-001	9.45534E-008	0.00000E+000	1.65989E-001	0.00000E+000	7	...........	0
	669	67	1.68936E-001	8.72180E-008	0.00000E+000	1.68989E-001	0.00000E+000	7	...........	0
	672	67.3	1.71949E-001	5.92103E-008	0.00000E+000	1.71989E-001	0.00000E+000	7	...........	0
	675	67.6	1.74932E-001	4.82073E-008	0.00000E+000	1.74989E-001	0.00000E+000	7	...........	0
	678	67.9	1.77925E-001	9.45534E-008	0.00000E+000	1.77989E-001	0.00000E+000	7	...........	0
	681	68.2	1.80938E-001	3.22029E-008	0.00000E+000	1.80989E-001	0.00000E+000	7	...........	0
	684	68.5	1.83941E-001	4.55399E-008	0.00000E+000	1.83989E-001	0.00000E+000	7	...........	0
	687	68.8	1.86934E-001	6.48785E-008	0.00000E+000	1.86990E-001	0.00000E+000	7	...........	0
	690	69.1	1.89947E-001	8.62177E-008	0.00000E+000	1.89990E-001	0.00000E+000	7	...........	0
	693	69.4	1.92940E-001	1.09891E-007	0.00000E+000	1.92990E-001	0.00000E+000	7	...........	0
	696	69.7	1.95943E-001	1.12225E-007	0.00000E+000	1.95990E-001	0.00000E+000	7	...........	0
	699	70	1.98956E-001	1.13559E-007	0.00000E+000	1.98990E-001	0.00000E+000	7	...........	0
	702	70.3	2.01949E-001	8.58843E-008	0.00000E+000	2.01990E-001	0.00000E+000	7	...........	0
	705	70.6	2.04932E-001	1.17226E-007	0.00000E+000	2.04990E-001	0.00000E+000	7	...........	0
	708	70.9	2.07965E-001	1.10891E-007	0.00000E+000	2.07990E-001	0.00000E+000	7	...........	0
	711	71.2	2.10948E-001	7.48813E-008	0.00000E+000	2.10991E-001	0.00000E+000	7	...........	0
	714	71.5	2.13941E-001	4.32059E-008	0.00000E+000	2.13991E-001	0.00000E+000	7	...........	0
	717	71.8	2.16934E-001	1.06223E-007	0.00000E+000	2.16991E-001	0.00000E+000	7	...........	0
	720	72.1	2.19927E-001	9.72208E-008	0.00000E+000	2.19991E-001	0.00000E+000	7	...........	0
	723	72.4	2.22940E-001	1.11225E-007	0.00000E+000	2.22991E-001	0.00000E+000	7	...........	0
	726	72.7	2.25953E-001	1.40566E-007	0.00000E+000	2.25991E-001	0.00000E+000	7	...........	0
	729	73	2.28935E-001	1.07557E-007	0.00000E+000	2.28991E-001	0.00000E+000	7	...........	0
	732	73.3	2.31938E-001	1.43233E-007	0.00000E+000	2.31991E-001	0.00000E+000	7	...........	0
	735	73.6	2.34941E-001	8.15498E-008	0.00000E+000	2.34992E-001	0.00000E+000	7	...........	0
	738	73.9	2.37934E-001	1.33231E-007	0.00000E+000	2.37992E-001	0.00000E+000	7	...........	0
	741	74.2	2.40917E-001	1.18227E-007	0.00000E+000	2.40992E-001	0.00000E+000	7	...........	0
	744	74.5	2.43940E-001	1.20894E-007	0.00000E+000	2.43992E-001	0.00000E+000	7	...........	0
	747	74.8	2.46933E-001	1.21561E-007	0.00000E+000	2.46992E-001	0.00000E+000	7	...........	0
	750	75.1	2.49936E-001	8.05495E-008	0.00000E+000	2.49992E-001	0.00000E+000	7	...........	0
	753	75.4	2.52929E-001	1.55904E-007	0.00000E+000	2.52992E-001	0.00000E+000	7	...........	0
	756	75.7	2.55912E-001	1.36898E-007	0.00000E+000	2.55992E-001	0.00000E+000	7	...........	0
	759	76	2.58905E-001	1.48235E-007	0.00000E+000	2.58993E-001	0.00000E+000	7	...........	0
	762	76.3	2.61908E-001	1.92580E-007	0.00000E+000	2.61993E-001	0.00000E+000	7	...........	0
	765	76.6	2.64911E-001	1.92247E-007	0.00000E+000	2.64993E-001	0.00000E+000	7	...........	0
	768	76.9	2.68255E-001	1.72241E-007	0.00000E+000	2.67993E-001	0.00000E+000	7	...........	0
	771	77.2	2.71258E-001	1.66240E-007	0.00000E+000	2.70993E-001	0.00000E+000	7	...........	0
	774	77.5	2.74261E-001	1.21561E-007	0.00000E+000	2.73993E-001	0.00000E+000	7	...........	0
	777	77.8	2.77164E-001	1.26562E-007	0.00000E+000	2.76993E-001	0.00000E+000	7	...........	0
	780	78.1	2.80267E-001	9.58871E-008	0.00000E+000	2.79993E-001	0.00000E+000	7	...........	0
	783	78.4	2.83270E-001	1.03222E-007	0.00000E+000	2.82993E-001	0.00000E+000	7	...........	0
	786	78.7	2.86273E-001	5.18750E-008	0.00000E+000	2.85994E-001	0.00000E+000	7	...........	0
	789	79	2.89276E-001	8.82183E-008	0.00000E+000	2.88994E-001	0.00000E+000	7	...........	0
	792	79.3	2.92279E-001	1.17560E-007	0.00000E+000	2.91994E-001	0.00000E+000	7	...........	0
	795	79.6	2.95282E-001	1.04890E-007	0.00000E+000	2.94994E-001	0.00000E+000	7	...........	0
	798	79.9	2.98185E-001	1.48235E-007	0.00000E+000	2.97994E-001	0.00000E+000	7	...........	0
	801	80.2	3.01288E-001	1.13225E-007	0.00000E+000	3.00994E-001	0.00000E+000	7	...........	0
	804	80.5	3.04191E-001	1.47568E-007	0.00000E+000	3.03994E-001	0.00000E+000	7	...........	0
	807	80.8	3.07294E-001	9.92213E-008	0.00000E+000	3.06994E-001	0.00000E+000	7	...........	0
	810	81.1	3.10297E-001	1.30563E-007	0.00000E+000	3.09995E-001	0.00000E+000	7	...........	0
	813	81.4	3.13300E-001	8.32169E-008	0.00000E+000	3.12995E-001	0.00000E+000	7	...........	0
	816	81.7	3.16303E-001	3.68709E-008	0.00000E+000	3.15995E-001	0.00000E+000	7	...........	0
	819	82	3.19306E-001	1.95328E-008	0.00000E+000	3.18995E-001	0.00000E+000	7	...........	0
	822	82.3	3.22309E-001	5.19549E-009	0.00000E+000	3.21995E-001	0.00000E+000	7	...........	0
	825	82.6	3.25312E-001	5.85435E-008	0.00000E+000	3.24995E-001	0.00000E+000	7	...........	0
	828	82.9	3.28315E-001	-2.31456E-008	0.00000E+000	3.27995E-001	0.00000E+000	7	...........	0
	831	83.2	3.31318E-001	6.19576E-009	0.00000E+000	3.30995E-001	0.00000E+000	7	...........	0
	834	83.5	3.34321E-001	6.95465E-008	0.00000E+000	3.33996E-001	0.00000E+000	7	...........	0
	837	83.8	3.37224E-001	8.88851E-008	0.00000E+000	3.36996E-001	0.00000E+000	7	...........	0
	840	84.1	3.40227E-001	3.32032E-008	0.00000E+000	3.39996E-001	0.00000E+000	7	...........	0
	843	84.4	3.43330E-001	5.18750E-008	0.00000E+000	3.42996E-001	0.00000E+000	7	...........	0
	846	84.7	3.46333E-001	9.15525E-008	0.00000E+000	3.45996E-001	0.00000E+000	7	...........	0
	849	85	3.49236E-001	1.08557E-007	0.00000E+000	3.48996E-001	0.00000E+000	7	...........	0
	852	85.3	3.52239E-001	1.23561E-007	0.00000E+000	3.51996E-001	0.00000E+000	7	...........	0
	855	85.6	3.55242E-001	1.65573E-007	0.00000E+000	3.54996E-001	0.00000E+000	7	...........	0
	858	85.9	3.58245E-001	1.99916E-007	0.00000E+000	3.57997E-001	0.00000E+000	7	...........	0
	861	86.2	3.61348E-001	1.96581E-007	0.00000E+000	3.60997E-001	0.00000E+000	7	...........	0
	864	86.5	3.64351E-001	1.80910E-007	0.00000E+000	3.63997E-001	0.00000E+000	7	...........	0
	867	86.8	3.67254E-001	1.54570E-007	0.00000E+000	3.66997E-001	0.00000E+000	7	...........	0
	870	87.1	3.70357E-001	1.78576E-007	0.00000E+000	3.69997E-001	0.00000E+000	7	...........	0
	873	87.4	3.73360E-001	1.56237E-007	0.00000E+000	3.72997E-001	0.00000E+000	7	...........	0
	876	87.7	3.76363E-001	1.54236E-007	0.00000E+000	3.75997E-001	0.00000E+000	7	...........	0
	879	88	3.79266E-001	1.39566E-007	0.00000E+000	3.78997E-001	0.00000E+000	7	...........	0
	882	88.3	3.82269E-001	1.34564E-007	0.00000E+000	3.81998E-001	0.00000E+000	7	...........	0
	885	88.6	3.85272E-001	1.60905E-007	0.00000E+000	3.84998E-001	0.00000E+000	7	...........	0
	888	88.9	3.88375E-001	1.01889E-007	0.00000E+000	3.87998E-001	0.00000E+000	7	...........	0
	891	89.2	3.91378E-001	5.58761E-008	0.00000E+000	3.90998E-001	0.00000E+000	7	...........	0
	894	89.5	3.94381E-001	1.24228E-007	0.00000E+000	3.93998E-001	0.00000E+000	7	...........	0
	897	89.8	3.97384E-001	1.00222E-007	0.00000E+000	3.96998E-001	0.00000E+000	7	...........	0
	900	90.1	4.00287E-001	9.45534E-008	0.00000E+000	3.99998E-001	0.00000E+000	7	...........	0
	903	90.4	4.03390E-001	7.15470E-008	0.00000E+000	4.02998E-001	0.00000E+000	7	...........	0
	906	90.7	4.06393E-001	8.88851E-008	0.00000E+000	4.05999E-001	0.00000E+000	7	...........	0
	909	91	4.09295E-001	1.10224E-007	0.00000E+000	4.08999E-001	0.00000E+000	7	...........	0
	912	91.3	4.12298E-001	1.06223E-007	0.00000E+000	4.11999E-001	0.00000E+000	7	...........	0
	915	91.6	4.15402E-001	1.71241E-007	0.00000E+000	4.14999E-001	0.00000E+000	7	...........	0
	918	91.9	4.18405E-001	1.20894E-007	0.00000E+000	4.17999E-001	0.00000E+000	7	...........	0
	921	92.2	4.21307E-001	1.22894E-007	0.00000E+000	4.20999E-001	0.00000E+000	7	...........	0
	924	92.5	4.24310E-001	1.98249E-007	0.00000E+000	4.23999E-001	0.00000E+000	7	...........	0
	927	92.8	4.27313E-001	1.84245E-007	0.00000E+000	4.26999E-001	0.00000E+000	7	...........	0
	930	93.1	4.30316E-001	1.76576E-007	0.00000E+000	4.30000E-001	0.00000E+000	7	...........	0
	933	93.4	4.33419E-001	1.89246E-007	0.00000E+000	4.33000E-001	0.00000E+000	7	...........	0
	936	93.7	4.36322E-001	1.98582E-007	0.00000E+000	4.36000E-001	0.00000E+000	7	...........	0
	939	94	4.39325E-001	1.97915E-007	0.00000E+000	4.39000E-001	0.00000E+000	7	...........	0
	942	94.3	4.42428E-001	2.23589E-007	0.00000E+000	4.42000E-001	0.00000E+000	7	...........	0
	945	94.6	4.45231E-001	1.37565E-007	0.00000E+000	4.45000E-001	0.00000E+000	7	...........	0
	948	94.9	4.48334E-001	1.76576E-007	0.00000E+000	4.48000E-001	0.00000E+000	7	...........	0
	951	95.2	4.51337E-001	1.82578E-007	0.00000E+000	4.51000E-001	0.00000E+000	7	...........	0
	954	95.5	4.54340E-001	1.96248E-007	0.00000E+000	4.54001E-001	0.00000E+000	7	...........	0
	957	95.8	4.57343E-001	2.19254E-007	0.00000E+000	4.57001E-001	0.00000E+000	7	...........	0
	960	96.1	4.60346E-001	1.65239E-007	0.00000E+000	4.60001E-001	0.00000E+000	7	...........	0
	963	96.4	4.63249E-001	2.19254E-007	0.00000E+000	4.63001E-001	0.00000E+000	7	...........	0
	966	96.7	4.66352E-001	2.36926E-007	0.00000E+000	4.66001E-001	0.00000E+000	7	...........	0
	969	97	4.69355E-001	2.12586E-007	0.00000E+000	4.69001E-001	0.00000E+000	7	...........	0
	972	97.3	4.72358E-001	2.61266E-007	0.00000E+000	4.72001E-001	0.00000E+000	7	...........	0
	975	97.6	4.75261E-001	2.25589E-007	0.00000E+000	4.75001E-001	0.00000E+000	7	...........	0
	978	97.9	4.78364E-001	1.96915E-007	0.00000E+000	4.78001E-001	0.00000E+000	7	...........	0
	981	98.2	4.81267E-001	2.24922E-007	0.00000E+000	4.81002E-001	0.00000E+000	7	...........	0
	984	98.5	4.84370E-001	2.33258E-007	0.00000E+000	4.84002E-001	0.00000E+000	7	...........	0
	987	98.8	4.87373E-001	1.75909E-007	0.00000E+000	4.87002E-001	0.00000E+000	7	...........	0
	990	99.1	4.90376E-001	1.95581E-007	0.00000E+000	4.90002E-001	0.00000E+000	7	...........	0
	993	99.4	4.93379E-001	1.88246E-007	0.00000E+000	4.93002E-001	0.00000E+000	7	...........	0
	996	99.7	4.96382E-001	1.82244E-007	0.00000E+000	4.96002E-001	0.00000E+000	7	...........	0
	999	100	4.99385E-001	2.22922E-007	0.00000E+000	4.99002E-001	0.00000E+000	7	...........	0
	1002	100.3	5.02488E-001	2.30257E-007	0.00000E+000	5.02002E-001	0.00000E+000	7	...........	0
	1005	100.6	5.05391E-001	3.02277E-007	0.00000E+000	5.05003E-001	0.00000E+000	7	...........	0
	1008	100.9	5.08294E-001	2.25589E-007	0.00000E+000	5.08003E-001	0.00000E+000	7	...........	0
	1011	101.2	5.11297E-001	2.69935E-007	0.00000E+000	5.11003E-001	0.00000E+000	7	...........	0
	1014	101.5	5.14400E-001	2.71602E-007	0.00000E+000	5.14003E-001	0.00000E+000	7	...........	0
	1017	101.8	5.17403E-001	2.97609E-007	0.00000E+000	5.17003E-001	0.00000E+000	7	...........	0
	1020	102.1	5.20406E-001	2.57598E-007	0.00000E+000	5.20003E-001	0.00000E+000	7	...........	0
	1023	102.4	5.23309E-001	3.17948E-007	0.00000E+000	5.23003E-001	0.00000E+000	7	...........	0
	1026	102.7	5.26312E-001	2.76603E-007	0.00000E+000	5.26003E-001	0.00000E+000	7	...........	0
	1029	103	5.29415E-001	2.84939E-007	0.00000E+000	5.29004E-001	0.00000E+000	7	...........	0
	1032	103.3	5.32318E-001	4.06639E-007	0.00000E+000	5.32004E-001	0.00000E+000	7	...........	0
	1035	103.6	5.35421E-001	4.19309E-007	0.00000E+000	5.35004E-001	0.00000E+000	7	...........	0
	1038	103.9	5.38324E-001	4.83660E-007	0.00000E+000	5.38004E-001	0.00000E+000	7	...........	0
	1041	104.2	5.41327E-001	4.65322E-007	0.00000E+000	5.41004E-001	0.00000E+000	7	...........	0
	1044	104.5	5.44330E-001	4.46317E-007	0.00000E+000	5.44004E-001	0.00000E+000	7	...........	0
	1047	104.8	5.47433E-001	4.43649E-007	0.00000E+000	5.47004E-001	0.00000E+000	7	...........	0
	1050	105.1	5.50436E-001	4.35981E-007	0.00000E+000	5.50004E-001	0.00000E+000	7	...........	0
	1053	105.4	5.53339E-001	4.31646E-007	0.00000E+000	5.53005E-001	0.00000E+000	7	...........	0
	1056	105.7	5.56342E-001	4.04972E-007	0.00000E+000	5.56005E-001	0.00000E+000	7	...........	0
	1059	106	5.59345E-001	4.03972E-007	0.00000E+000	5.59005E-001	0.00000E+000	7	...........	0
	1062	106.3	5.62448E-001	4.46650E-007	0.00000E+000	5.62005E-001	0.00000E+000	7	...........	0
	1065	106.6	5.65451E-001	4.45983E-007	0.00000E+000	5.65005E-001	0.00000E+000	7	...........	0
	1068	106.9	5.68454E-001	5.57347E-007	0.00000E+000	5.68005E-001	0.00000E+000	7	...........	0
	1071	107.2	5.71457E-001	5.20004E-007	0.00000E+000	5.71005E-001	0.00000E+000	7	...........	0
	1074	107.5	5.74360E-001	5.43010E-007	0.00000E+000	5.74005E-001	0.00000E+000	7	...........	0
	1077	107.8	5.77463E-001	5.85355E-007	0.00000E+000	5.77006E-001	0.00000E+000	7	...........	0
	1080	108.1	5.80366E-001	6.26700E-007	0.00000E+000	5.80006E-001	0.00000E+000	7	...........	0
	1083	108.4	5.83369E-001	6.35369E-007	0.00000E+000	5.83006E-001	0.00000E+000	7	...........	0
	1086	108.7	5.86372E-001	7.06388E-007	0.00000E+000	5.86006E-001	0.00000E+000	7	...........	0
	1089	109	5.89375E-001	7.59403E-007	0.00000E+000	5.89006E-001	0.00000E+000	7	...........	0
	1092	109.3	5.92478E-001	8.21086E-007	0.00000E+000	5.92006E-001	0.00000E+000	7	...........	0
	1095	109.6	5.95381E-001	8.29755E-007	0.00000E+000	5.95006E-001	0.00000E+000	7	...........	0
	1098	109.9	5.98384E-001	8.51761E-007	0.00000E+000	5.98006E-001	0.00000E+000	7	...........	0
	1100	110.1	6.00286E-001	8.67432E-007	0.00000E+000	6.00006E-001	0.00000E+000	7	...........	0