File: LSV ZFO/ZFO_h200_light.DTA
EXPLAIN
TAG	LSV
TITLE	LABEL	Linear Sweep Voltammetry	Test &Identifier
DATE	LABEL	7/5/2024	Date
TIME	LABEL	16:24:48	Time
NOTES	NOTES	1	&Notes...

PSTAT	PSTAT	L3FNano	Potentiostat
VINIT	POTEN	-5.00000E-001	F	&Initial E (V)
VFINAL	POTEN	6.00000E-001	F	&Final E (V)
SCANRATE	QUANT	9.99998E+000	&Scan Rate (mV/s)
STEPSIZE	QUANT	1.00000E+000	St&ep Size (mV)
IMODE	SELECTOR	0	I/E Range &Mode
IRANGE	QUANT	1.00000E+001	&Max Current (mA)
AREA	QUANT	1.00000E+000	Electrode &Area (cm^2)
ELECTRODETYPE	SELECTOR	0	Electrode Type
STRIPPING	TOGGLE	F	Used for Stripping
POLARITY	TOGGLE	F	Signal Polarity
CONDIT	TWOPARAM	F	1.50000E+001	0.00000E+000	Conditionin&g	Time(s)	E(V)
DELAY	TWOPARAM	F	3.00000E+001	0.00000E+000	Init. De&lay	Time(s)	Stab.(mV/s)
EQDELAY	QUANT	5.00000E+000	Equil. &Time (s)
IRCOMP	SELECTOR	0	IRCom&p
PFCOR	QUANT	5.00000E+001	PF Corr. (ohm)
SAMPLINGMODE	SELECTOR	0	Sampling &Mode
EOC	QUANT	0	Open Circuit (V)
PSTATMODEL	IQUANT	48	Pstat Model
PSTATSECTION	LABEL	IFC1000-07082	Pstat Section
PSTATSERIALNO	LABEL	07082	Pstat Serial Number
CTRLMODE	IQUANT	1	Control Mode
IESTAB	IQUANT	2	I/E Stability
CASPEED	IQUANT	2	Control Amp Speed
CONVENTION	IQUANT	1	Current Convention
ICHRANGE	IQUANT	2	Ich Range
ICHRANGEMODE	TOGGLE	F	Ich Auto Range
ICHOFFSETENABLE	TOGGLE	F	Ich Offset Enable
ICHOFFSET	QUANT	0	Ich Offset (V)
ICHFILTER	IQUANT	3	Ich Filter
VCHRANGE	IQUANT	2	Vch Range
VCHRANGEMODE	TOGGLE	T	Vch Auto Range
VCHOFFSETENABLE	TOGGLE	F	Vch Offset Enable
VCHOFFSET	QUANT	0	Vch Offset (V)
VCHFILTER	IQUANT	3	Vch Filter
IERANGELOWERLIMIT	IQUANT	4	I/E Range Lower Limit
IERANGEMODE	TOGGLE	T	I/E AutoRange
IERANGE	IQUANT	11	I/E Range
ACHSELECT	IQUANT	4	Ach Select
CABLEID	IQUANT	14	Cable ID
DCCALDATE	LABEL	7/3/2024	DC Calibration Date
ACCALDATE	LABEL	7/3/2024	AC Calibration Date
FRAMEWORKVERSION	QUANT	6.24	Framework Version
INSTRUMENTVERSION	LABEL	3.28	Instrument Version
CURVE	TABLE	1101
	Pt	T	Vf	Im	Vu	Sig	Ach	IERange	Over	Cycle
	#	s	V vs. Ref.	A	V	V	V	#	bits	#
	0	0.1	-4.99909E-001	-1.39019E-006	0.00000E+000	-4.99988E-001	0.00000E+000	11	...........	0
	3	0.4	-4.97007E-001	-6.23850E-006	0.00000E+000	-4.96988E-001	0.00000E+000	8	...........	0
	6	0.7	-4.93903E-001	-5.88009E-006	0.00000E+000	-4.93988E-001	0.00000E+000	7	...........	0
	9	1	-4.91001E-001	-5.52499E-006	0.00000E+000	-4.90988E-001	0.00000E+000	7	...........	0
	12	1.3	-4.87998E-001	-5.24525E-006	0.00000E+000	-4.87988E-001	0.00000E+000	7	...........	0
	15	1.6	-4.84895E-001	-4.94083E-006	0.00000E+000	-4.84988E-001	0.00000E+000	7	...........	0
	18	1.9	-4.81892E-001	-4.66709E-006	0.00000E+000	-4.81988E-001	0.00000E+000	7	...........	0
	21	2.2	-4.78989E-001	-4.37834E-006	0.00000E+000	-4.78988E-001	0.00000E+000	7	...........	0
	24	2.5	-4.75986E-001	-4.14428E-006	0.00000E+000	-4.75987E-001	0.00000E+000	7	...........	0
	27	2.8	-4.72883E-001	-3.89888E-006	0.00000E+000	-4.72987E-001	0.00000E+000	7	...........	0
	30	3.1	-4.69880E-001	-3.64981E-006	0.00000E+000	-4.69987E-001	0.00000E+000	7	...........	0
	33	3.4	-4.66977E-001	-3.30105E-006	0.00000E+000	-4.66987E-001	0.00000E+000	7	...........	0
	36	3.7	-4.63874E-001	-1.09222E-004	0.00000E+000	-4.63987E-001	0.00000E+000	8	....ih..i..	0
	39	4	-4.60871E-001	-4.39299E-004	0.00000E+000	-4.60987E-001	0.00000E+000	9	...........	0
	42	4.3	-4.57868E-001	-3.22036E-004	0.00000E+000	-4.57987E-001	0.00000E+000	9	...........	0
	45	4.6	-4.54965E-001	-2.62040E-004	0.00000E+000	-4.54987E-001	0.00000E+000	9	...........	0
	48	4.9	-4.51962E-001	-2.22586E-004	0.00000E+000	-4.51987E-001	0.00000E+000	9	...........	0
	51	5.2	-4.48959E-001	-1.93221E-004	0.00000E+000	-4.48986E-001	0.00000E+000	9	...........	0
	54	5.5	-4.45956E-001	-1.71146E-004	0.00000E+000	-4.45986E-001	0.00000E+000	9	...........	0
	57	5.8	-4.42953E-001	-1.53467E-004	0.00000E+000	-4.42986E-001	0.00000E+000	9	...........	0
	60	6.1	-4.40050E-001	-1.38818E-004	0.00000E+000	-4.39986E-001	0.00000E+000	9	...........	0
	63	6.4	-4.36947E-001	-1.26099E-004	0.00000E+000	-4.36986E-001	0.00000E+000	9	...........	0
	66	6.7	-4.33944E-001	-1.14912E-004	0.00000E+000	-4.33986E-001	0.00000E+000	9	...........	0
	69	7	-4.30941E-001	-1.05457E-004	0.00000E+000	-4.30986E-001	0.00000E+000	9	...........	0
	72	7.3	-4.28038E-001	-9.67671E-005	0.00000E+000	-4.27986E-001	0.00000E+000	9	...........	0
	75	7.6	-4.24935E-001	-8.88430E-005	0.00000E+000	-4.24985E-001	0.00000E+000	9	...........	0
	78	7.9	-4.21932E-001	-8.11520E-005	0.00000E+000	-4.21985E-001	0.00000E+000	9	...........	0
	81	8.2	-4.18929E-001	-7.48199E-005	0.00000E+000	-4.18985E-001	0.00000E+000	8	...........	0
	84	8.5	-4.15926E-001	-6.85062E-005	0.00000E+000	-4.15985E-001	0.00000E+000	8	...........	0
	87	8.8	-4.12923E-001	-6.26724E-005	0.00000E+000	-4.12985E-001	0.00000E+000	8	...........	0
	90	9.1	-4.09920E-001	-5.72554E-005	0.00000E+000	-4.09985E-001	0.00000E+000	8	...........	0
	93	9.4	-4.06917E-001	-5.22017E-005	0.00000E+000	-4.06985E-001	0.00000E+000	8	...........	0
	96	9.7	-4.04014E-001	-4.72547E-005	0.00000E+000	-4.03985E-001	0.00000E+000	8	...........	0
	99	10	-4.00911E-001	-4.31011E-005	0.00000E+000	-4.00984E-001	0.00000E+000	8	...........	0
	102	10.3	-3.97908E-001	-3.92508E-005	0.00000E+000	-3.97984E-001	0.00000E+000	8	...........	0
	105	10.6	-3.94905E-001	-3.53072E-005	0.00000E+000	-3.94984E-001	0.00000E+000	8	...........	0
	108	10.9	-3.91902E-001	-3.19803E-005	0.00000E+000	-3.91984E-001	0.00000E+000	8	...........	0
	111	11.2	-3.88899E-001	-2.87967E-005	0.00000E+000	-3.88984E-001	0.00000E+000	8	...........	0
	114	11.5	-3.85896E-001	-2.57732E-005	0.00000E+000	-3.85984E-001	0.00000E+000	8	...........	0
	117	11.8	-3.82893E-001	-2.29697E-005	0.00000E+000	-3.82984E-001	0.00000E+000	8	...........	0
	120	12.1	-3.79890E-001	-1.98261E-005	0.00000E+000	-3.79984E-001	0.00000E+000	8	...........	0
	123	12.4	-3.76887E-001	-1.71759E-005	0.00000E+000	-3.76983E-001	0.00000E+000	8	...........	0
	126	12.7	-3.73884E-001	-1.46524E-005	0.00000E+000	-3.73983E-001	0.00000E+000	8	...........	0
	129	13	-3.70881E-001	-1.22089E-005	0.00000E+000	-3.70983E-001	0.00000E+000	8	...........	0
	132	13.3	-3.67978E-001	-9.86875E-006	0.00000E+000	-3.67983E-001	0.00000E+000	8	...........	0
	135	13.6	-3.64975E-001	-7.89528E-006	0.00000E+000	-3.64983E-001	0.00000E+000	8	...........	0
	138	13.9	-3.61972E-001	-5.88676E-006	0.00000E+000	-3.61983E-001	0.00000E+000	7	...........	0
	141	14.2	-3.58969E-001	-4.00257E-006	0.00000E+000	-3.58983E-001	0.00000E+000	7	...........	0
	144	14.5	-3.55966E-001	-1.82831E-006	0.00000E+000	-3.55983E-001	0.00000E+000	7	...........	0
	147	14.8	-3.52863E-001	-1.35510E-007	0.00000E+000	-3.52982E-001	0.00000E+000	7	...........	0
	150	15.1	-3.49960E-001	1.55029E-006	0.00000E+000	-3.49982E-001	0.00000E+000	7	...........	0
	153	15.4	-3.46957E-001	3.16240E-006	0.00000E+000	-3.46982E-001	0.00000E+000	7	...........	0
	156	15.7	-3.43954E-001	4.73349E-006	0.00000E+000	-3.43982E-001	0.00000E+000	7	...........	0
	159	16	-3.40951E-001	6.26058E-006	0.00000E+000	-3.40982E-001	0.00000E+000	7	...........	0
	162	16.3	-3.37948E-001	7.53560E-006	0.00000E+000	-3.37982E-001	0.00000E+000	7	...........	0
	165	16.6	-3.34945E-001	8.94198E-006	0.00000E+000	-3.34982E-001	0.00000E+000	7	...........	0
	168	16.9	-3.31942E-001	1.02860E-005	0.00000E+000	-3.31982E-001	0.00000E+000	8	...........	0
	171	17.2	-3.28939E-001	1.14494E-005	0.00000E+000	-3.28982E-001	0.00000E+000	8	...........	0
	174	17.5	-3.25936E-001	1.25628E-005	0.00000E+000	-3.25981E-001	0.00000E+000	8	...........	0
	177	17.8	-3.22933E-001	1.37096E-005	0.00000E+000	-3.22981E-001	0.00000E+000	8	...........	0
	180	18.1	-3.19830E-001	1.50730E-005	0.00000E+000	-3.19981E-001	0.00000E+000	8	...........	0
	183	18.4	-3.16827E-001	1.61297E-005	0.00000E+000	-3.16981E-001	0.00000E+000	8	...........	0
	186	18.7	-3.13924E-001	1.70598E-005	0.00000E+000	-3.13981E-001	0.00000E+000	8	...........	0
	189	19	-3.10921E-001	1.78699E-005	0.00000E+000	-3.10981E-001	0.00000E+000	8	...........	0
	192	19.3	-3.07918E-001	1.85366E-005	0.00000E+000	-3.07981E-001	0.00000E+000	8	...........	0
	195	19.6	-3.04915E-001	1.95433E-005	0.00000E+000	-3.04981E-001	0.00000E+000	8	...........	0
	198	19.9	-3.01912E-001	2.03934E-005	0.00000E+000	-3.01980E-001	0.00000E+000	8	...........	0
	201	20.2	-2.98909E-001	2.08301E-005	0.00000E+000	-2.98980E-001	0.00000E+000	8	...........	0
	204	20.5	-2.95906E-001	2.19768E-005	0.00000E+000	-2.95980E-001	0.00000E+000	8	...........	0
	207	20.8	-2.92903E-001	2.29502E-005	0.00000E+000	-2.92980E-001	0.00000E+000	8	...........	0
	210	21.1	-2.89900E-001	2.35036E-005	0.00000E+000	-2.89980E-001	0.00000E+000	8	...........	0
	213	21.4	-2.86897E-001	2.43536E-005	0.00000E+000	-2.86980E-001	0.00000E+000	8	...........	0
	216	21.7	-2.83995E-001	2.52004E-005	0.00000E+000	-2.83980E-001	0.00000E+000	8	...........	0
	219	22	-2.80891E-001	2.59338E-005	0.00000E+000	-2.80980E-001	0.00000E+000	8	...........	0
	222	22.3	-2.77788E-001	2.66938E-005	0.00000E+000	-2.77979E-001	0.00000E+000	8	...........	0
	225	22.6	-2.74986E-001	2.73972E-005	0.00000E+000	-2.74979E-001	0.00000E+000	8	...........	0
	228	22.9	-2.71883E-001	2.79206E-005	0.00000E+000	-2.71979E-001	0.00000E+000	8	...........	0
	231	23.2	-2.68880E-001	2.86406E-005	0.00000E+000	-2.68979E-001	0.00000E+000	8	...........	0
	234	23.5	-2.65977E-001	2.91273E-005	0.00000E+000	-2.65979E-001	0.00000E+000	8	...........	0
	237	23.8	-2.62974E-001	2.98274E-005	0.00000E+000	-2.62979E-001	0.00000E+000	8	...........	0
	240	24.1	-2.59971E-001	3.02341E-005	0.00000E+000	-2.59979E-001	0.00000E+000	8	...........	0
	243	24.4	-2.56868E-001	3.08008E-005	0.00000E+000	-2.56979E-001	0.00000E+000	8	...........	0
	246	24.7	-2.53865E-001	3.15075E-005	0.00000E+000	-2.53978E-001	0.00000E+000	8	...........	0
	249	25	-2.50862E-001	3.20142E-005	0.00000E+000	-2.50978E-001	0.00000E+000	8	...........	0
	252	25.3	-2.47859E-001	3.26075E-005	0.00000E+000	-2.47978E-001	0.00000E+000	8	...........	0
	255	25.6	-2.44956E-001	3.30676E-005	0.00000E+000	-2.44978E-001	0.00000E+000	8	...........	0
	258	25.9	-2.41903E-001	3.29942E-005	0.00000E+000	-2.41978E-001	0.00000E+000	8	...........	0
	261	26.2	-2.38900E-001	3.32143E-005	0.00000E+000	-2.38978E-001	0.00000E+000	8	...........	0
	264	26.5	-2.35887E-001	3.36176E-005	0.00000E+000	-2.35978E-001	0.00000E+000	8	...........	0
	267	26.8	-2.32884E-001	3.42077E-005	0.00000E+000	-2.32978E-001	0.00000E+000	8	...........	0
	270	27.1	-2.29891E-001	3.52144E-005	0.00000E+000	-2.29977E-001	0.00000E+000	8	...........	0
	273	27.4	-2.26898E-001	3.51177E-005	0.00000E+000	-2.26977E-001	0.00000E+000	8	...........	0
	276	27.7	-2.23885E-001	3.61045E-005	0.00000E+000	-2.23977E-001	0.00000E+000	8	...........	0
	279	28	-2.20902E-001	3.64078E-005	0.00000E+000	-2.20977E-001	0.00000E+000	8	...........	0
	282	28.3	-2.17909E-001	3.67545E-005	0.00000E+000	-2.17977E-001	0.00000E+000	8	...........	0
	285	28.6	-2.14876E-001	3.70545E-005	0.00000E+000	-2.14977E-001	0.00000E+000	8	...........	0
	288	28.9	-2.11913E-001	3.70279E-005	0.00000E+000	-2.11977E-001	0.00000E+000	8	...........	0
	291	29.2	-2.08900E-001	3.75146E-005	0.00000E+000	-2.08977E-001	0.00000E+000	8	...........	0
	294	29.5	-2.05857E-001	3.70145E-005	0.00000E+000	-2.05976E-001	0.00000E+000	8	...........	0
	297	29.8	-2.02904E-001	3.71045E-005	0.00000E+000	-2.02976E-001	0.00000E+000	8	...........	0
	300	30.1	-1.99881E-001	3.75479E-005	0.00000E+000	-1.99976E-001	0.00000E+000	8	...........	0
	303	30.4	-1.96908E-001	3.76212E-005	0.00000E+000	-1.96976E-001	0.00000E+000	8	...........	0
	306	30.7	-1.93895E-001	3.80713E-005	0.00000E+000	-1.93976E-001	0.00000E+000	8	...........	0
	309	31	-1.90902E-001	3.78979E-005	0.00000E+000	-1.90976E-001	0.00000E+000	8	...........	0
	312	31.3	-1.87909E-001	3.77012E-005	0.00000E+000	-1.87976E-001	0.00000E+000	8	...........	0
	315	31.6	-1.84896E-001	3.77979E-005	0.00000E+000	-1.84976E-001	0.00000E+000	8	...........	0
	318	31.9	-1.81903E-001	3.83246E-005	0.00000E+000	-1.81975E-001	0.00000E+000	8	...........	0
	321	32.2	-1.78900E-001	3.81513E-005	0.00000E+000	-1.78975E-001	0.00000E+000	8	...........	0
	324	32.5	-1.75897E-001	3.84813E-005	0.00000E+000	-1.75975E-001	0.00000E+000	8	...........	0
	327	32.8	-1.72904E-001	3.94547E-005	0.00000E+000	-1.72975E-001	0.00000E+000	8	...........	0
	330	33.1	-1.69902E-001	3.95147E-005	0.00000E+000	-1.69975E-001	0.00000E+000	8	...........	0
	333	33.4	-1.66949E-001	3.99481E-005	0.00000E+000	-1.67025E-001	0.00000E+000	8	...........	0
	336	33.7	-1.63956E-001	4.04514E-005	0.00000E+000	-1.64025E-001	0.00000E+000	8	...........	0
	339	34	-1.60943E-001	4.12482E-005	0.00000E+000	-1.61025E-001	0.00000E+000	8	...........	0
	342	34.3	-1.57960E-001	4.11381E-005	0.00000E+000	-1.58025E-001	0.00000E+000	8	...........	0
	345	34.6	-1.54947E-001	4.13448E-005	0.00000E+000	-1.55024E-001	0.00000E+000	8	...........	0
	348	34.9	-1.51984E-001	4.16082E-005	0.00000E+000	-1.52024E-001	0.00000E+000	8	...........	0
	351	35.2	-1.48981E-001	4.19582E-005	0.00000E+000	-1.49024E-001	0.00000E+000	8	...........	0
	354	35.5	-1.45988E-001	4.19382E-005	0.00000E+000	-1.46024E-001	0.00000E+000	8	...........	0
	357	35.8	-1.42995E-001	4.20949E-005	0.00000E+000	-1.43024E-001	0.00000E+000	8	...........	0
	360	36.1	-1.39982E-001	4.16448E-005	0.00000E+000	-1.40024E-001	0.00000E+000	8	...........	0
	363	36.4	-1.36989E-001	4.17615E-005	0.00000E+000	-1.37024E-001	0.00000E+000	8	...........	0
	366	36.7	-1.33986E-001	4.21749E-005	0.00000E+000	-1.34024E-001	0.00000E+000	8	...........	0
	369	37	-1.30993E-001	4.21349E-005	0.00000E+000	-1.31023E-001	0.00000E+000	8	...........	0
	372	37.3	-1.28000E-001	4.23616E-005	0.00000E+000	-1.28023E-001	0.00000E+000	8	...........	0
	375	37.6	-1.24977E-001	4.28616E-005	0.00000E+000	-1.25023E-001	0.00000E+000	8	...........	0
	378	37.9	-1.21974E-001	4.24082E-005	0.00000E+000	-1.22023E-001	0.00000E+000	8	...........	0
	381	38.2	-1.18981E-001	4.33083E-005	0.00000E+000	-1.19023E-001	0.00000E+000	8	...........	0
	384	38.5	-1.15978E-001	4.37250E-005	0.00000E+000	-1.16023E-001	0.00000E+000	8	...........	0
	387	38.8	-1.12985E-001	4.37450E-005	0.00000E+000	-1.13023E-001	0.00000E+000	8	...........	0
	390	39.1	-1.09992E-001	4.46017E-005	0.00000E+000	-1.10023E-001	0.00000E+000	8	...........	0
	393	39.4	-1.06979E-001	4.46617E-005	0.00000E+000	-1.07022E-001	0.00000E+000	8	...........	0
	396	39.7	-1.03986E-001	4.45584E-005	0.00000E+000	-1.04022E-001	0.00000E+000	8	...........	0
	399	40	-1.00993E-001	4.38017E-005	0.00000E+000	-1.01022E-001	0.00000E+000	8	...........	0
	402	40.3	-9.79899E-002	4.33383E-005	0.00000E+000	-9.80221E-002	0.00000E+000	8	...........	0
	405	40.6	-9.49969E-002	4.31916E-005	0.00000E+000	-9.50219E-002	0.00000E+000	8	...........	0
	408	40.9	-9.19940E-002	4.30716E-005	0.00000E+000	-9.20218E-002	0.00000E+000	8	...........	0
	411	41.2	-8.89910E-002	4.33983E-005	0.00000E+000	-8.90217E-002	0.00000E+000	8	...........	0
	414	41.5	-8.59880E-002	4.34516E-005	0.00000E+000	-8.60216E-002	0.00000E+000	8	...........	0
	417	41.8	-8.29750E-002	4.36750E-005	0.00000E+000	-8.30214E-002	0.00000E+000	8	...........	0
	420	42.1	-8.00020E-002	4.37017E-005	0.00000E+000	-8.00213E-002	0.00000E+000	8	...........	0
	423	42.4	-7.69890E-002	4.36950E-005	0.00000E+000	-7.70212E-002	0.00000E+000	8	...........	0
	426	42.7	-7.39960E-002	4.37150E-005	0.00000E+000	-7.40211E-002	0.00000E+000	8	...........	0
	429	43	-7.10031E-002	4.42317E-005	0.00000E+000	-7.10210E-002	0.00000E+000	8	...........	0
	432	43.3	-6.79901E-002	4.45317E-005	0.00000E+000	-6.80208E-002	0.00000E+000	8	...........	0
	435	43.6	-6.49771E-002	4.49651E-005	0.00000E+000	-6.50207E-002	0.00000E+000	8	...........	0
	438	43.9	-6.19641E-002	4.49717E-005	0.00000E+000	-6.20206E-002	0.00000E+000	8	...........	0
	441	44.2	-5.89811E-002	4.58185E-005	0.00000E+000	-5.90205E-002	0.00000E+000	8	...........	0
	444	44.5	-5.59881E-002	4.65952E-005	0.00000E+000	-5.60203E-002	0.00000E+000	8	...........	0
	447	44.8	-5.29751E-002	4.64052E-005	0.00000E+000	-5.30202E-002	0.00000E+000	8	...........	0
	450	45.1	-5.00022E-002	4.72286E-005	0.00000E+000	-5.00201E-002	0.00000E+000	8	...........	0
	453	45.4	-4.69892E-002	4.71219E-005	0.00000E+000	-4.70200E-002	0.00000E+000	8	...........	0
	456	45.7	-4.39962E-002	4.65819E-005	0.00000E+000	-4.40199E-002	0.00000E+000	8	...........	0
	459	46	-4.09832E-002	4.67219E-005	0.00000E+000	-4.10197E-002	0.00000E+000	8	...........	0
	462	46.3	-3.79802E-002	4.70952E-005	0.00000E+000	-3.80196E-002	0.00000E+000	8	...........	0
	465	46.6	-3.49872E-002	4.73386E-005	0.00000E+000	-3.50195E-002	0.00000E+000	8	...........	0
	468	46.9	-3.19842E-002	4.76353E-005	0.00000E+000	-3.20194E-002	0.00000E+000	8	...........	0
	471	47.2	-2.90113E-002	4.74753E-005	0.00000E+000	-2.90192E-002	0.00000E+000	8	...........	0
	474	47.5	-2.59883E-002	4.68652E-005	0.00000E+000	-2.60191E-002	0.00000E+000	8	...........	0
	477	47.8	-2.29720E-002	4.68019E-005	0.00000E+000	-2.30190E-002	0.00000E+000	8	...........	0
	480	48.1	-1.99820E-002	4.71552E-005	0.00000E+000	-2.00189E-002	0.00000E+000	8	...........	0
	483	48.4	-1.69760E-002	4.64552E-005	0.00000E+000	-1.70187E-002	0.00000E+000	8	...........	0
	486	48.7	-1.39911E-002	4.64152E-005	0.00000E+000	-1.40186E-002	0.00000E+000	8	...........	0
	489	49	-1.09811E-002	4.64118E-005	0.00000E+000	-1.10185E-002	0.00000E+000	8	...........	0
	492	49.3	-7.98710E-003	4.66752E-005	0.00000E+000	-8.01838E-003	0.00000E+000	8	...........	0
	495	49.6	-4.98211E-003	4.74386E-005	0.00000E+000	-5.01826E-003	0.00000E+000	8	...........	0
	498	49.9	-1.98512E-003	4.74186E-005	0.00000E+000	-2.01814E-003	0.00000E+000	8	...........	0
	501	50.2	1.01286E-003	4.81053E-005	0.00000E+000	9.81987E-004	0.00000E+000	8	...........	0
	504	50.5	4.00884E-003	4.81486E-005	0.00000E+000	3.98211E-003	0.00000E+000	8	...........	0
	507	50.8	7.01884E-003	4.88087E-005	0.00000E+000	6.98223E-003	0.00000E+000	8	...........	0
	510	51.1	1.00198E-002	4.95121E-005	0.00000E+000	9.98235E-003	0.00000E+000	8	...........	0
	513	51.4	1.30028E-002	5.06888E-005	0.00000E+000	1.29825E-002	0.00000E+000	8	...........	0
	516	51.7	1.59968E-002	5.03555E-005	0.00000E+000	1.59826E-002	0.00000E+000	8	...........	0
	519	52	1.89898E-002	5.11088E-005	0.00000E+000	1.89827E-002	0.00000E+000	8	...........	0
	522	52.3	2.19987E-002	5.16622E-005	0.00000E+000	2.19828E-002	0.00000E+000	8	...........	0
	525	52.6	2.49987E-002	5.30723E-005	0.00000E+000	2.49830E-002	0.00000E+000	8	...........	0
	528	52.9	2.80155E-002	5.34557E-005	0.00000E+000	2.79831E-002	0.00000E+000	8	...........	0
	531	53.2	3.10085E-002	5.36924E-005	0.00000E+000	3.09832E-002	0.00000E+000	8	...........	0
	534	53.5	3.40015E-002	5.44624E-005	0.00000E+000	3.39833E-002	0.00000E+000	8	...........	0
	537	53.8	3.70145E-002	5.49691E-005	0.00000E+000	3.69835E-002	0.00000E+000	8	...........	0
	540	54.1	4.00174E-002	5.57392E-005	0.00000E+000	3.99836E-002	0.00000E+000	8	...........	0
	543	54.4	4.30004E-002	5.62692E-005	0.00000E+000	4.29837E-002	0.00000E+000	8	...........	0
	546	54.7	4.60234E-002	5.69859E-005	0.00000E+000	4.59838E-002	0.00000E+000	8	...........	0
	549	55	4.90164E-002	5.79126E-005	0.00000E+000	4.89840E-002	0.00000E+000	8	...........	0
	552	55.3	5.19994E-002	5.72626E-005	0.00000E+000	5.19841E-002	0.00000E+000	8	...........	0
	555	55.6	5.50124E-002	5.74059E-005	0.00000E+000	5.49842E-002	0.00000E+000	8	...........	0
	558	55.9	5.80054E-002	5.83527E-005	0.00000E+000	5.79843E-002	0.00000E+000	8	...........	0
	561	56.2	6.09983E-002	5.88427E-005	0.00000E+000	6.09844E-002	0.00000E+000	8	...........	0
	564	56.5	6.40013E-002	5.97661E-005	0.00000E+000	6.39846E-002	0.00000E+000	8	...........	0
	567	56.8	6.70043E-002	6.08895E-005	0.00000E+000	6.69847E-002	0.00000E+000	8	...........	0
	570	57.1	7.00173E-002	6.22329E-005	0.00000E+000	6.99848E-002	0.00000E+000	8	...........	0
	573	57.4	7.30003E-002	6.28730E-005	0.00000E+000	7.29849E-002	0.00000E+000	8	...........	0
	576	57.7	7.60133E-002	6.33864E-005	0.00000E+000	7.59851E-002	0.00000E+000	8	...........	0
	579	58	7.90263E-002	6.43498E-005	0.00000E+000	7.89852E-002	0.00000E+000	8	...........	0
	582	58.3	8.20092E-002	6.46998E-005	0.00000E+000	8.19853E-002	0.00000E+000	8	...........	0
	585	58.6	8.50122E-002	6.68366E-005	0.00000E+000	8.49854E-002	0.00000E+000	8	...........	0
	588	58.9	8.80052E-002	6.78133E-005	0.00000E+000	8.79855E-002	0.00000E+000	8	...........	0
	591	59.2	9.10182E-002	6.78267E-005	0.00000E+000	9.09857E-002	0.00000E+000	8	...........	0
	594	59.5	9.40112E-002	6.88567E-005	0.00000E+000	9.39858E-002	0.00000E+000	8	...........	0
	597	59.8	9.69641E-002	6.99335E-005	0.00000E+000	9.69859E-002	0.00000E+000	8	...........	0
	600	60.1	9.99972E-002	7.26670E-005	0.00000E+000	9.99860E-002	0.00000E+000	8	...........	0
	603	60.4	1.03010E-001	7.50472E-005	0.00000E+000	1.02986E-001	0.00000E+000	8	...........	0
	606	60.7	1.06003E-001	7.52972E-005	0.00000E+000	1.05986E-001	0.00000E+000	8	...........	0
	609	61	1.08986E-001	7.60272E-005	0.00000E+000	1.08986E-001	0.00000E+000	8	...........	0
	612	61.3	1.11999E-001	7.70440E-005	0.00000E+000	1.11987E-001	0.00000E+000	8	...........	0
	615	61.6	1.15002E-001	7.89874E-005	0.00000E+000	1.14987E-001	0.00000E+000	8	...........	0
	618	61.9	1.18015E-001	7.96675E-005	0.00000E+000	1.17987E-001	0.00000E+000	8	...........	0
	621	62.2	1.21008E-001	7.96642E-005	0.00000E+000	1.20987E-001	0.00000E+000	8	...........	0
	624	62.5	1.23991E-001	8.05176E-005	0.00000E+000	1.23987E-001	0.00000E+000	8	...........	0
	627	62.8	1.26994E-001	8.19477E-005	0.00000E+000	1.26987E-001	0.00000E+000	8	...........	0
	630	63.1	1.29997E-001	8.35411E-005	0.00000E+000	1.29987E-001	0.00000E+000	8	...........	0
	633	63.4	1.33000E-001	8.41145E-005	0.00000E+000	1.32987E-001	0.00000E+000	8	...........	0
	636	63.7	1.35993E-001	8.58513E-005	0.00000E+000	1.35988E-001	0.00000E+000	8	...........	0
	639	64	1.38996E-001	8.68508E-005	0.00000E+000	1.38988E-001	0.00000E+000	9	...........	0
	642	64.3	1.42019E-001	8.77498E-005	0.00000E+000	1.41988E-001	0.00000E+000	9	...........	0
	645	64.6	1.44992E-001	8.88485E-005	0.00000E+000	1.44988E-001	0.00000E+000	9	...........	0
	648	64.9	1.48015E-001	9.02136E-005	0.00000E+000	1.47988E-001	0.00000E+000	9	...........	0
	651	65.2	1.51008E-001	9.22778E-005	0.00000E+000	1.50988E-001	0.00000E+000	9	...........	0
	654	65.5	1.54021E-001	9.39425E-005	0.00000E+000	1.53988E-001	0.00000E+000	9	...........	0
	657	65.8	1.57004E-001	9.45085E-005	0.00000E+000	1.56988E-001	0.00000E+000	9	...........	0
	660	66.1	1.60017E-001	9.57737E-005	0.00000E+000	1.59988E-001	0.00000E+000	9	...........	0
	663	66.4	1.63000E-001	9.67725E-005	0.00000E+000	1.62989E-001	0.00000E+000	9	...........	0
	666	66.7	1.66003E-001	9.79711E-005	0.00000E+000	1.65989E-001	0.00000E+000	9	...........	0
	669	67	1.69006E-001	9.91031E-005	0.00000E+000	1.68989E-001	0.00000E+000	9	...........	0
	672	67.3	1.72009E-001	1.00868E-004	0.00000E+000	1.71989E-001	0.00000E+000	9	...........	0
	675	67.6	1.74992E-001	1.02066E-004	0.00000E+000	1.74989E-001	0.00000E+000	9	...........	0
	678	67.9	1.78005E-001	1.04530E-004	0.00000E+000	1.77989E-001	0.00000E+000	9	...........	0
	681	68.2	1.80998E-001	1.06561E-004	0.00000E+000	1.80989E-001	0.00000E+000	9	...........	0
	684	68.5	1.84011E-001	1.08725E-004	0.00000E+000	1.83989E-001	0.00000E+000	9	...........	0
	687	68.8	1.87034E-001	1.08392E-004	0.00000E+000	1.86990E-001	0.00000E+000	9	...........	0
	690	69.1	1.89997E-001	1.08559E-004	0.00000E+000	1.89990E-001	0.00000E+000	9	...........	0
	693	69.4	1.92990E-001	1.09957E-004	0.00000E+000	1.92990E-001	0.00000E+000	9	...........	0
	696	69.7	1.96013E-001	1.10590E-004	0.00000E+000	1.95990E-001	0.00000E+000	9	...........	0
	699	70	1.99006E-001	1.11955E-004	0.00000E+000	1.98990E-001	0.00000E+000	9	...........	0
	702	70.3	2.01999E-001	1.12787E-004	0.00000E+000	2.01990E-001	0.00000E+000	9	...........	0
	705	70.6	2.04992E-001	1.14319E-004	0.00000E+000	2.04990E-001	0.00000E+000	9	...........	0
	708	70.9	2.08005E-001	1.15917E-004	0.00000E+000	2.07990E-001	0.00000E+000	9	...........	0
	711	71.2	2.11008E-001	1.17082E-004	0.00000E+000	2.10991E-001	0.00000E+000	9	...........	0
	714	71.5	2.14011E-001	1.18713E-004	0.00000E+000	2.13991E-001	0.00000E+000	9	...........	0
	717	71.8	2.16994E-001	1.19446E-004	0.00000E+000	2.16991E-001	0.00000E+000	9	...........	0
	720	72.1	2.19987E-001	1.20045E-004	0.00000E+000	2.19991E-001	0.00000E+000	9	...........	0
	723	72.4	2.23020E-001	1.21011E-004	0.00000E+000	2.22991E-001	0.00000E+000	9	...........	0
	726	72.7	2.25993E-001	1.22409E-004	0.00000E+000	2.25991E-001	0.00000E+000	9	...........	0
	729	73	2.28976E-001	1.23907E-004	0.00000E+000	2.28991E-001	0.00000E+000	9	...........	0
	732	73.3	2.31999E-001	1.25306E-004	0.00000E+000	2.31991E-001	0.00000E+000	9	...........	0
	735	73.6	2.34992E-001	1.27570E-004	0.00000E+000	2.34992E-001	0.00000E+000	9	...........	0
	738	73.9	2.37984E-001	1.29001E-004	0.00000E+000	2.37992E-001	0.00000E+000	9	...........	0
	741	74.2	2.41008E-001	1.29501E-004	0.00000E+000	2.40992E-001	0.00000E+000	9	...........	0
	744	74.5	2.43980E-001	1.31865E-004	0.00000E+000	2.43992E-001	0.00000E+000	9	...........	0
	747	74.8	2.47003E-001	1.33230E-004	0.00000E+000	2.46992E-001	0.00000E+000	9	...........	0
	750	75.1	2.49996E-001	1.36226E-004	0.00000E+000	2.49992E-001	0.00000E+000	9	...........	0
	753	75.4	2.52979E-001	1.37059E-004	0.00000E+000	2.52992E-001	0.00000E+000	9	...........	0
	756	75.7	2.55952E-001	1.37591E-004	0.00000E+000	2.55992E-001	0.00000E+000	9	...........	0
	759	76	2.58965E-001	1.37558E-004	0.00000E+000	2.58993E-001	0.00000E+000	9	...........	0
	762	76.3	2.61968E-001	1.40055E-004	0.00000E+000	2.61993E-001	0.00000E+000	9	...........	0
	765	76.6	2.64961E-001	1.40388E-004	0.00000E+000	2.64993E-001	0.00000E+000	9	...........	0
	768	76.9	2.68155E-001	1.40921E-004	0.00000E+000	2.67993E-001	0.00000E+000	9	...........	0
	771	77.2	2.71258E-001	1.42153E-004	0.00000E+000	2.70993E-001	0.00000E+000	9	...........	0
	774	77.5	2.74061E-001	1.43684E-004	0.00000E+000	2.73993E-001	0.00000E+000	9	...........	0
	777	77.8	2.77064E-001	1.45848E-004	0.00000E+000	2.76993E-001	0.00000E+000	9	...........	0
	780	78.1	2.80167E-001	1.48046E-004	0.00000E+000	2.79993E-001	0.00000E+000	9	...........	0
	783	78.4	2.83170E-001	1.49710E-004	0.00000E+000	2.82993E-001	0.00000E+000	9	...........	0
	786	78.7	2.86173E-001	1.50743E-004	0.00000E+000	2.85994E-001	0.00000E+000	9	...........	0
	789	79	2.89176E-001	1.53007E-004	0.00000E+000	2.88994E-001	0.00000E+000	9	...........	0
	792	79.3	2.92179E-001	1.54372E-004	0.00000E+000	2.91994E-001	0.00000E+000	9	...........	0
	795	79.6	2.95182E-001	1.55237E-004	0.00000E+000	2.94994E-001	0.00000E+000	9	...........	0
	798	79.9	2.98185E-001	1.57468E-004	0.00000E+000	2.97994E-001	0.00000E+000	9	...........	0
	801	80.2	3.01188E-001	1.60265E-004	0.00000E+000	3.00994E-001	0.00000E+000	9	...........	0
	804	80.5	3.04091E-001	1.62162E-004	0.00000E+000	3.03994E-001	0.00000E+000	9	...........	0
	807	80.8	3.07094E-001	1.62529E-004	0.00000E+000	3.06994E-001	0.00000E+000	9	...........	0
	810	81.1	3.10097E-001	1.64693E-004	0.00000E+000	3.09995E-001	0.00000E+000	9	...........	0
	813	81.4	3.13200E-001	1.65925E-004	0.00000E+000	3.12995E-001	0.00000E+000	9	...........	0
	816	81.7	3.16203E-001	1.67456E-004	0.00000E+000	3.15995E-001	0.00000E+000	9	...........	0
	819	82	3.19106E-001	1.67922E-004	0.00000E+000	3.18995E-001	0.00000E+000	9	...........	0
	822	82.3	3.22109E-001	1.69287E-004	0.00000E+000	3.21995E-001	0.00000E+000	9	...........	0
	825	82.6	3.25212E-001	1.69720E-004	0.00000E+000	3.24995E-001	0.00000E+000	9	...........	0
	828	82.9	3.28115E-001	1.71818E-004	0.00000E+000	3.27995E-001	0.00000E+000	9	...........	0
	831	83.2	3.31218E-001	1.72351E-004	0.00000E+000	3.30995E-001	0.00000E+000	9	...........	0
	834	83.5	3.34221E-001	1.73150E-004	0.00000E+000	3.33996E-001	0.00000E+000	9	...........	0
	837	83.8	3.37124E-001	1.74248E-004	0.00000E+000	3.36996E-001	0.00000E+000	9	...........	0
	840	84.1	3.40227E-001	1.77578E-004	0.00000E+000	3.39996E-001	0.00000E+000	9	...........	0
	843	84.4	3.43230E-001	1.79076E-004	0.00000E+000	3.42996E-001	0.00000E+000	9	...........	0
	846	84.7	3.46233E-001	1.81606E-004	0.00000E+000	3.45996E-001	0.00000E+000	9	...........	0
	849	85	3.49236E-001	1.83804E-004	0.00000E+000	3.48996E-001	0.00000E+000	9	...........	0
	852	85.3	3.52139E-001	1.84603E-004	0.00000E+000	3.51996E-001	0.00000E+000	9	...........	0
	855	85.6	3.55142E-001	1.84403E-004	0.00000E+000	3.54996E-001	0.00000E+000	9	...........	0
	858	85.9	3.58145E-001	1.85269E-004	0.00000E+000	3.57997E-001	0.00000E+000	9	...........	0
	861	86.2	3.61248E-001	1.87033E-004	0.00000E+000	3.60997E-001	0.00000E+000	9	...........	0
	864	86.5	3.64151E-001	1.89031E-004	0.00000E+000	3.63997E-001	0.00000E+000	9	...........	0
	867	86.8	3.67254E-001	1.90096E-004	0.00000E+000	3.66997E-001	0.00000E+000	9	...........	0
	870	87.1	3.70157E-001	1.92560E-004	0.00000E+000	3.69997E-001	0.00000E+000	9	...........	0
	873	87.4	3.73160E-001	1.96955E-004	0.00000E+000	3.72997E-001	0.00000E+000	9	...........	0
	876	87.7	3.76263E-001	1.98620E-004	0.00000E+000	3.75997E-001	0.00000E+000	9	...........	0
	879	88	3.79166E-001	1.99718E-004	0.00000E+000	3.78997E-001	0.00000E+000	9	...........	0
	882	88.3	3.82169E-001	2.00085E-004	0.00000E+000	3.81998E-001	0.00000E+000	9	...........	0
	885	88.6	3.85272E-001	2.03048E-004	0.00000E+000	3.84998E-001	0.00000E+000	9	...........	0
	888	88.9	3.88174E-001	2.05145E-004	0.00000E+000	3.87998E-001	0.00000E+000	9	...........	0
	891	89.2	3.91177E-001	2.07642E-004	0.00000E+000	3.90998E-001	0.00000E+000	9	...........	0
	894	89.5	3.94180E-001	2.09307E-004	0.00000E+000	3.93998E-001	0.00000E+000	9	...........	0
	897	89.8	3.97183E-001	2.11038E-004	0.00000E+000	3.96998E-001	0.00000E+000	9	...........	0
	900	90.1	4.00287E-001	2.13302E-004	0.00000E+000	3.99998E-001	0.00000E+000	9	...........	0
	903	90.4	4.03189E-001	2.14401E-004	0.00000E+000	4.02998E-001	0.00000E+000	9	...........	0
	906	90.7	4.06192E-001	2.14168E-004	0.00000E+000	4.05999E-001	0.00000E+000	9	...........	0
	909	91	4.09195E-001	2.16332E-004	0.00000E+000	4.08999E-001	0.00000E+000	9	...........	0
	912	91.3	4.12098E-001	2.19029E-004	0.00000E+000	4.11999E-001	0.00000E+000	9	...........	0
	915	91.6	4.15201E-001	2.21559E-004	0.00000E+000	4.14999E-001	0.00000E+000	9	...........	0
	918	91.9	4.18204E-001	2.25155E-004	0.00000E+000	4.17999E-001	0.00000E+000	9	...........	0
	921	92.2	4.21207E-001	2.27619E-004	0.00000E+000	4.20999E-001	0.00000E+000	9	...........	0
	924	92.5	4.24210E-001	2.28818E-004	0.00000E+000	4.23999E-001	0.00000E+000	9	...........	0
	927	92.8	4.27213E-001	2.29517E-004	0.00000E+000	4.26999E-001	0.00000E+000	9	...........	0
	930	93.1	4.30316E-001	2.33146E-004	0.00000E+000	4.30000E-001	0.00000E+000	9	...........	0
	933	93.4	4.33219E-001	2.37008E-004	0.00000E+000	4.33000E-001	0.00000E+000	9	...........	0
	936	93.7	4.36222E-001	2.42934E-004	0.00000E+000	4.36000E-001	0.00000E+000	9	...........	0
	939	94	4.39225E-001	2.45598E-004	0.00000E+000	4.39000E-001	0.00000E+000	9	...........	0
	942	94.3	4.42228E-001	2.48195E-004	0.00000E+000	4.42000E-001	0.00000E+000	9	...........	0
	945	94.6	4.45231E-001	2.50559E-004	0.00000E+000	4.45000E-001	0.00000E+000	9	...........	0
	948	94.9	4.48234E-001	2.53655E-004	0.00000E+000	4.48000E-001	0.00000E+000	9	...........	0
	951	95.2	4.51337E-001	2.55453E-004	0.00000E+000	4.51000E-001	0.00000E+000	9	...........	0
	954	95.5	4.54240E-001	2.56618E-004	0.00000E+000	4.54001E-001	0.00000E+000	9	...........	0
	957	95.8	4.57243E-001	2.62112E-004	0.00000E+000	4.57001E-001	0.00000E+000	9	...........	0
	960	96.1	4.60246E-001	2.64509E-004	0.00000E+000	4.60001E-001	0.00000E+000	9	...........	0
	963	96.4	4.63149E-001	2.69303E-004	0.00000E+000	4.63001E-001	0.00000E+000	9	...........	0
	966	96.7	4.66152E-001	2.72466E-004	0.00000E+000	4.66001E-001	0.00000E+000	9	...........	0
	969	97	4.69255E-001	2.78726E-004	0.00000E+000	4.69001E-001	0.00000E+000	9	...........	0
	972	97.3	4.72158E-001	2.84219E-004	0.00000E+000	4.72001E-001	0.00000E+000	9	...........	0
	975	97.6	4.75161E-001	2.88781E-004	0.00000E+000	4.75001E-001	0.00000E+000	9	...........	0
	978	97.9	4.78264E-001	2.94574E-004	0.00000E+000	4.78001E-001	0.00000E+000	9	...........	0
	981	98.2	4.81167E-001	3.03130E-004	0.00000E+000	4.81002E-001	0.00000E+000	9	...........	0
	984	98.5	4.84170E-001	3.09922E-004	0.00000E+000	4.84002E-001	0.00000E+000	9	...........	0
	987	98.8	4.87173E-001	3.19378E-004	0.00000E+000	4.87002E-001	0.00000E+000	9	...........	0
	990	99.1	4.90276E-001	3.26969E-004	0.00000E+000	4.90002E-001	0.00000E+000	9	...........	0
	993	99.4	4.93279E-001	3.39754E-004	0.00000E+000	4.93002E-001	0.00000E+000	9	...........	0
	996	99.7	4.96282E-001	3.55103E-004	0.00000E+000	4.96002E-001	0.00000E+000	9	...........	0
	999	100	4.99185E-001	3.74180E-004	0.00000E+000	4.99002E-001	0.00000E+000	9	...........	0
	1002	100.3	5.02188E-001	3.94790E-004	0.00000E+000	5.02002E-001	0.00000E+000	9	...........	0
	1005	100.6	5.05291E-001	4.15465E-004	0.00000E+000	5.05003E-001	0.00000E+000	9	...........	0
	1008	100.9	5.08094E-001	4.36174E-004	0.00000E+000	5.08003E-001	0.00000E+000	9	...........	0
	1011	101.2	5.11197E-001	4.60979E-004	0.00000E+000	5.11003E-001	0.00000E+000	9	...........	0
	1014	101.5	5.14200E-001	4.85350E-004	0.00000E+000	5.14003E-001	0.00000E+000	9	...........	0
	1017	101.8	5.17303E-001	5.12019E-004	0.00000E+000	5.17003E-001	0.00000E+000	9	...........	0
	1020	102.1	5.20206E-001	5.39620E-004	0.00000E+000	5.20003E-001	0.00000E+000	9	...........	0
	1023	102.4	5.23209E-001	5.68286E-004	0.00000E+000	5.23003E-001	0.00000E+000	9	...........	0
	1026	102.7	5.26212E-001	5.93490E-004	0.00000E+000	5.26003E-001	0.00000E+000	9	...........	0
	1029	103	5.29315E-001	6.22323E-004	0.00000E+000	5.29004E-001	0.00000E+000	9	...........	0
	1032	103.3	5.32218E-001	6.48925E-004	0.00000E+000	5.32004E-001	0.00000E+000	9	...........	0
	1035	103.6	5.35221E-001	6.81620E-004	0.00000E+000	5.35004E-001	0.00000E+000	9	...........	0
	1038	103.9	5.38224E-001	7.11019E-004	0.00000E+000	5.38004E-001	0.00000E+000	9	...........	0
	1041	104.2	5.41227E-001	7.40118E-004	0.00000E+000	5.41004E-001	0.00000E+000	9	...........	0
	1044	104.5	5.44230E-001	7.70848E-004	0.00000E+000	5.44004E-001	0.00000E+000	9	...........	0
	1047	104.8	5.47233E-001	8.02278E-004	0.00000E+000	5.47004E-001	0.00000E+000	9	...........	0
	1050	105.1	5.50236E-001	8.31977E-004	0.00000E+000	5.50004E-001	0.00000E+000	9	...........	0
	1053	105.4	5.53239E-001	8.62940E-004	0.00000E+000	5.53005E-001	0.00000E+000	9	...........	0
	1056	105.7	5.56142E-001	8.95569E-004	0.00000E+000	5.56005E-001	0.00000E+000	9	...........	0
	1059	106	5.59245E-001	9.31714E-004	0.00000E+000	5.59005E-001	0.00000E+000	10	...........	0
	1062	106.3	5.62248E-001	9.62909E-004	0.00000E+000	5.62005E-001	0.00000E+000	10	...........	0
	1065	106.6	5.65351E-001	9.96094E-004	0.00000E+000	5.65005E-001	0.00000E+000	10	...........	0
	1068	106.9	5.68254E-001	1.02895E-003	0.00000E+000	5.68005E-001	0.00000E+000	10	...........	0
	1071	107.2	5.71257E-001	1.05749E-003	0.00000E+000	5.71005E-001	0.00000E+000	10	...........	0
	1074	107.5	5.74260E-001	1.08968E-003	0.00000E+000	5.74005E-001	0.00000E+000	10	...........	0
	1077	107.8	5.77263E-001	1.12452E-003	0.00000E+000	5.77006E-001	0.00000E+000	10	...........	0
	1080	108.1	5.80266E-001	1.16003E-003	0.00000E+000	5.80006E-001	0.00000E+000	10	...........	0
	1083	108.4	5.83269E-001	1.19388E-003	0.00000E+000	5.83006E-001	0.00000E+000	10	...........	0
	1086	108.7	5.86272E-001	1.22441E-003	0.00000E+000	5.86006E-001	0.00000E+000	10	...........	0
	1089	109	5.89275E-001	1.25727E-003	0.00000E+000	5.89006E-001	0.00000E+000	10	...........	0
	1092	109.3	5.92378E-001	1.28946E-003	0.00000E+000	5.92006E-001	0.00000E+000	10	...........	0
	1095	109.6	5.95281E-001	1.32330E-003	0.00000E+000	5.95006E-001	0.00000E+000	10	...........	0
	1098	109.9	5.98284E-001	1.35815E-003	0.00000E+000	5.98006E-001	0.00000E+000	10	...........	0
	1100	110.1	6.00186E-001	1.38038E-003	0.00000E+000	6.00006E-001	0.00000E+000	10	...........	0