File: LSV ZFO/ZFO_h400_light.DTA
EXPLAIN
TAG	LSV
TITLE	LABEL	Linear Sweep Voltammetry	Test &Identifier
DATE	LABEL	7/5/2024	Date
TIME	LABEL	16:57:15	Time
NOTES	NOTES	1	&Notes...

PSTAT	PSTAT	L3FNano	Potentiostat
VINIT	POTEN	-5.00000E-001	F	&Initial E (V)
VFINAL	POTEN	6.00000E-001	F	&Final E (V)
SCANRATE	QUANT	9.99998E+000	&Scan Rate (mV/s)
STEPSIZE	QUANT	1.00000E+000	St&ep Size (mV)
IMODE	SELECTOR	0	I/E Range &Mode
IRANGE	QUANT	1.00000E+001	&Max Current (mA)
AREA	QUANT	1.00000E+000	Electrode &Area (cm^2)
ELECTRODETYPE	SELECTOR	0	Electrode Type
STRIPPING	TOGGLE	F	Used for Stripping
POLARITY	TOGGLE	F	Signal Polarity
CONDIT	TWOPARAM	F	1.50000E+001	0.00000E+000	Conditionin&g	Time(s)	E(V)
DELAY	TWOPARAM	F	3.00000E+001	0.00000E+000	Init. De&lay	Time(s)	Stab.(mV/s)
EQDELAY	QUANT	5.00000E+000	Equil. &Time (s)
IRCOMP	SELECTOR	0	IRCom&p
PFCOR	QUANT	5.00000E+001	PF Corr. (ohm)
SAMPLINGMODE	SELECTOR	0	Sampling &Mode
EOC	QUANT	0	Open Circuit (V)
PSTATMODEL	IQUANT	48	Pstat Model
PSTATSECTION	LABEL	IFC1000-07082	Pstat Section
PSTATSERIALNO	LABEL	07082	Pstat Serial Number
CTRLMODE	IQUANT	1	Control Mode
IESTAB	IQUANT	2	I/E Stability
CASPEED	IQUANT	2	Control Amp Speed
CONVENTION	IQUANT	1	Current Convention
ICHRANGE	IQUANT	2	Ich Range
ICHRANGEMODE	TOGGLE	F	Ich Auto Range
ICHOFFSETENABLE	TOGGLE	F	Ich Offset Enable
ICHOFFSET	QUANT	0	Ich Offset (V)
ICHFILTER	IQUANT	3	Ich Filter
VCHRANGE	IQUANT	2	Vch Range
VCHRANGEMODE	TOGGLE	T	Vch Auto Range
VCHOFFSETENABLE	TOGGLE	F	Vch Offset Enable
VCHOFFSET	QUANT	0	Vch Offset (V)
VCHFILTER	IQUANT	3	Vch Filter
IERANGELOWERLIMIT	IQUANT	4	I/E Range Lower Limit
IERANGEMODE	TOGGLE	T	I/E AutoRange
IERANGE	IQUANT	11	I/E Range
ACHSELECT	IQUANT	4	Ach Select
CABLEID	IQUANT	14	Cable ID
DCCALDATE	LABEL	7/3/2024	DC Calibration Date
ACCALDATE	LABEL	7/3/2024	AC Calibration Date
FRAMEWORKVERSION	QUANT	6.24	Framework Version
INSTRUMENTVERSION	LABEL	3.28	Instrument Version
CURVE	TABLE	1101
	Pt	T	Vf	Im	Vu	Sig	Ach	IERange	Over	Cycle
	#	s	V vs. Ref.	A	V	V	V	#	bits	#
	0	0.1	-5.00110E-001	-1.46991E-005	0.00000E+000	-4.99988E-001	0.00000E+000	11	...........	0
	3	0.4	-4.97107E-001	-1.94861E-005	0.00000E+000	-4.96988E-001	0.00000E+000	8	...........	0
	6	0.7	-4.94104E-001	-1.86427E-005	0.00000E+000	-4.93988E-001	0.00000E+000	8	...........	0
	9	1	-4.91001E-001	-1.77093E-005	0.00000E+000	-4.90988E-001	0.00000E+000	8	...........	0
	12	1.3	-4.87998E-001	-1.68559E-005	0.00000E+000	-4.87988E-001	0.00000E+000	8	...........	0
	15	1.6	-4.85095E-001	-1.65792E-005	0.00000E+000	-4.84988E-001	0.00000E+000	8	...........	0
	18	1.9	-4.82192E-001	-1.53291E-005	0.00000E+000	-4.81988E-001	0.00000E+000	8	...........	0
	21	2.2	-4.78989E-001	-1.46091E-005	0.00000E+000	-4.78988E-001	0.00000E+000	8	...........	0
	24	2.5	-4.75986E-001	-1.39157E-005	0.00000E+000	-4.75987E-001	0.00000E+000	8	...........	0
	27	2.8	-4.73183E-001	-1.31790E-005	0.00000E+000	-4.72987E-001	0.00000E+000	8	...........	0
	30	3.1	-4.70180E-001	-1.28356E-005	0.00000E+000	-4.69987E-001	0.00000E+000	8	...........	0
	33	3.4	-4.67077E-001	-1.16722E-005	0.00000E+000	-4.66987E-001	0.00000E+000	8	...........	0
	36	3.7	-4.64174E-001	-1.11522E-005	0.00000E+000	-4.63987E-001	0.00000E+000	8	...........	0
	39	4	-4.61071E-001	-1.07388E-005	0.00000E+000	-4.60987E-001	0.00000E+000	8	...........	0
	42	4.3	-4.58068E-001	-1.02088E-005	0.00000E+000	-4.57987E-001	0.00000E+000	8	...........	0
	45	4.6	-4.55065E-001	-9.73874E-006	0.00000E+000	-4.54987E-001	0.00000E+000	8	...........	0
	48	4.9	-4.52062E-001	-8.79534E-006	0.00000E+000	-4.51987E-001	0.00000E+000	8	...........	0
	51	5.2	-4.49059E-001	-8.54199E-006	0.00000E+000	-4.48986E-001	0.00000E+000	8	...........	0
	54	5.5	-4.46056E-001	-8.85057E-006	0.00000E+000	-4.45986E-001	0.00000E+000	7	...........	0
	57	5.8	-4.43153E-001	-8.44713E-006	0.00000E+000	-4.42986E-001	0.00000E+000	7	...........	0
	60	6.1	-4.40050E-001	-8.28642E-006	0.00000E+000	-4.39986E-001	0.00000E+000	7	...........	0
	63	6.4	-4.36947E-001	-7.57055E-006	0.00000E+000	-4.36986E-001	0.00000E+000	7	...........	0
	66	6.7	-4.34144E-001	-7.34416E-006	0.00000E+000	-4.33986E-001	0.00000E+000	7	...........	0
	69	7	-4.31141E-001	-6.91070E-006	0.00000E+000	-4.30986E-001	0.00000E+000	7	...........	0
	72	7.3	-4.28138E-001	-6.55361E-006	0.00000E+000	-4.27986E-001	0.00000E+000	7	...........	0
	75	7.6	-4.25035E-001	-6.28353E-006	0.00000E+000	-4.24985E-001	0.00000E+000	7	...........	0
	78	7.9	-4.22132E-001	-6.07447E-006	0.00000E+000	-4.21985E-001	0.00000E+000	7	...........	0
	81	8.2	-4.19029E-001	-5.76372E-006	0.00000E+000	-4.18985E-001	0.00000E+000	7	...........	0
	84	8.5	-4.16026E-001	-5.37128E-006	0.00000E+000	-4.15985E-001	0.00000E+000	7	...........	0
	87	8.8	-4.13023E-001	-5.12921E-006	0.00000E+000	-4.12985E-001	0.00000E+000	7	...........	0
	90	9.1	-4.10120E-001	-4.83347E-006	0.00000E+000	-4.09985E-001	0.00000E+000	7	...........	0
	93	9.4	-4.07117E-001	-4.59007E-006	0.00000E+000	-4.06985E-001	0.00000E+000	7	...........	0
	96	9.7	-4.04114E-001	-4.25731E-006	0.00000E+000	-4.03985E-001	0.00000E+000	7	...........	0
	99	10	-4.01011E-001	-3.97356E-006	0.00000E+000	-4.00984E-001	0.00000E+000	7	...........	0
	102	10.3	-3.98108E-001	-3.60180E-006	0.00000E+000	-3.97984E-001	0.00000E+000	7	...........	0
	105	10.6	-3.95105E-001	-3.13167E-006	0.00000E+000	-3.94984E-001	0.00000E+000	7	...........	0
	108	10.9	-3.92002E-001	-2.76457E-006	0.00000E+000	-3.91984E-001	0.00000E+000	7	...........	0
	111	11.2	-3.89099E-001	-2.47949E-006	0.00000E+000	-3.88984E-001	0.00000E+000	7	...........	0
	114	11.5	-3.86096E-001	-2.32244E-006	0.00000E+000	-3.85984E-001	0.00000E+000	7	...........	0
	117	11.8	-3.83093E-001	-2.00636E-006	0.00000E+000	-3.82984E-001	0.00000E+000	7	...........	0
	120	12.1	-3.80090E-001	-1.99835E-006	0.00000E+000	-3.79984E-001	0.00000E+000	7	...........	0
	123	12.4	-3.77187E-001	-1.90099E-006	0.00000E+000	-3.76983E-001	0.00000E+000	7	...........	0
	126	12.7	-3.74184E-001	-1.58924E-006	0.00000E+000	-3.73983E-001	0.00000E+000	7	...........	0
	129	13	-3.71081E-001	-1.36185E-006	0.00000E+000	-3.70983E-001	0.00000E+000	7	...........	0
	132	13.3	-3.68178E-001	-8.51373E-007	0.00000E+000	-3.67983E-001	0.00000E+000	7	...........	0
	135	13.6	-3.64975E-001	-8.74380E-007	0.00000E+000	-3.64983E-001	0.00000E+000	7	...........	0
	138	13.9	-3.62072E-001	-6.39982E-007	0.00000E+000	-3.61983E-001	0.00000E+000	7	...........	0
	141	14.2	-3.59169E-001	-1.66852E-007	0.00000E+000	-3.58983E-001	0.00000E+000	7	...........	0
	144	14.5	-3.56166E-001	-6.41569E-008	0.00000E+000	-3.55983E-001	0.00000E+000	7	...........	0
	147	14.8	-3.53063E-001	4.72324E-007	0.00000E+000	-3.52982E-001	0.00000E+000	7	...........	0
	150	15.1	-3.50160E-001	4.68656E-007	0.00000E+000	-3.49982E-001	0.00000E+000	7	...........	0
	153	15.4	-3.47057E-001	8.98774E-007	0.00000E+000	-3.46982E-001	0.00000E+000	7	...........	0
	156	15.7	-3.44154E-001	1.14684E-006	0.00000E+000	-3.43982E-001	0.00000E+000	7	...........	0
	159	16	-3.41151E-001	1.09316E-006	0.00000E+000	-3.40982E-001	0.00000E+000	7	...........	0
	162	16.3	-3.38048E-001	1.25887E-006	0.00000E+000	-3.37982E-001	0.00000E+000	7	...........	0
	165	16.6	-3.35045E-001	1.03981E-006	0.00000E+000	-3.34982E-001	0.00000E+000	7	...........	0
	168	16.9	-3.32042E-001	1.68132E-006	0.00000E+000	-3.31982E-001	0.00000E+000	7	...........	0
	171	17.2	-3.29140E-001	2.17946E-006	0.00000E+000	-3.28982E-001	0.00000E+000	7	...........	0
	174	17.5	-3.26137E-001	2.00908E-006	0.00000E+000	-3.25981E-001	0.00000E+000	7	...........	0
	177	17.8	-3.23134E-001	2.67593E-006	0.00000E+000	-3.22981E-001	0.00000E+000	7	...........	0
	180	18.1	-3.20030E-001	2.33517E-006	0.00000E+000	-3.19981E-001	0.00000E+000	7	...........	0
	183	18.4	-3.17027E-001	2.98768E-006	0.00000E+000	-3.16981E-001	0.00000E+000	7	...........	0
	186	18.7	-3.14024E-001	3.11205E-006	0.00000E+000	-3.13981E-001	0.00000E+000	7	...........	0
	189	19	-3.11222E-001	2.70360E-006	0.00000E+000	-3.10981E-001	0.00000E+000	7	...........	0
	192	19.3	-3.08119E-001	3.30877E-006	0.00000E+000	-3.07981E-001	0.00000E+000	7	...........	0
	195	19.6	-3.05015E-001	3.03136E-006	0.00000E+000	-3.04981E-001	0.00000E+000	7	...........	0
	198	19.9	-3.02113E-001	3.04803E-006	0.00000E+000	-3.01980E-001	0.00000E+000	7	...........	0
	201	20.2	-2.99110E-001	3.62086E-006	0.00000E+000	-2.98980E-001	0.00000E+000	7	...........	0
	204	20.5	-2.96107E-001	3.28510E-006	0.00000E+000	-2.95980E-001	0.00000E+000	7	...........	0
	207	20.8	-2.93004E-001	3.78190E-006	0.00000E+000	-2.92980E-001	0.00000E+000	7	...........	0
	210	21.1	-2.90001E-001	3.31511E-006	0.00000E+000	-2.89980E-001	0.00000E+000	7	...........	0
	213	21.4	-2.86998E-001	3.37312E-006	0.00000E+000	-2.86980E-001	0.00000E+000	7	...........	0
	216	21.7	-2.83995E-001	4.02063E-006	0.00000E+000	-2.83980E-001	0.00000E+000	7	...........	0
	219	22	-2.80992E-001	3.39146E-006	0.00000E+000	-2.80980E-001	0.00000E+000	7	...........	0
	222	22.3	-2.78089E-001	3.96895E-006	0.00000E+000	-2.77979E-001	0.00000E+000	7	...........	0
	225	22.6	-2.75086E-001	3.55917E-006	0.00000E+000	-2.74979E-001	0.00000E+000	7	...........	0
	228	22.9	-2.71983E-001	3.88259E-006	0.00000E+000	-2.71979E-001	0.00000E+000	7	...........	0
	231	23.2	-2.68980E-001	4.40874E-006	0.00000E+000	-2.68979E-001	0.00000E+000	7	...........	0
	234	23.5	-2.65977E-001	3.79590E-006	0.00000E+000	-2.65979E-001	0.00000E+000	7	...........	0
	237	23.8	-2.62974E-001	4.60646E-006	0.00000E+000	-2.62979E-001	0.00000E+000	7	...........	0
	240	24.1	-2.60071E-001	3.85425E-006	0.00000E+000	-2.59979E-001	0.00000E+000	7	...........	0
	243	24.4	-2.56968E-001	4.34705E-006	0.00000E+000	-2.56979E-001	0.00000E+000	7	...........	0
	246	24.7	-2.54065E-001	4.17801E-006	0.00000E+000	-2.53978E-001	0.00000E+000	7	...........	0
	249	25	-2.50962E-001	3.06070E-006	0.00000E+000	-2.50978E-001	0.00000E+000	7	...........	0
	252	25.3	-2.48059E-001	3.48982E-006	0.00000E+000	-2.47978E-001	0.00000E+000	7	...........	0
	255	25.6	-2.45056E-001	3.32177E-006	0.00000E+000	-2.44978E-001	0.00000E+000	7	...........	0
	258	25.9	-2.41993E-001	3.22641E-006	0.00000E+000	-2.41978E-001	0.00000E+000	7	...........	0
	261	26.2	-2.39020E-001	3.89626E-006	0.00000E+000	-2.38978E-001	0.00000E+000	7	...........	0
	264	26.5	-2.36047E-001	3.88226E-006	0.00000E+000	-2.35978E-001	0.00000E+000	7	...........	0
	267	26.8	-2.33004E-001	4.67681E-006	0.00000E+000	-2.32978E-001	0.00000E+000	7	...........	0
	270	27.1	-2.29971E-001	4.48276E-006	0.00000E+000	-2.29977E-001	0.00000E+000	7	...........	0
	273	27.4	-2.26978E-001	4.34839E-006	0.00000E+000	-2.26977E-001	0.00000E+000	7	...........	0
	276	27.7	-2.23985E-001	4.65314E-006	0.00000E+000	-2.23977E-001	0.00000E+000	7	...........	0
	279	28	-2.21002E-001	4.84853E-006	0.00000E+000	-2.20977E-001	0.00000E+000	7	...........	0
	282	28.3	-2.18019E-001	5.29165E-006	0.00000E+000	-2.17977E-001	0.00000E+000	7	...........	0
	285	28.6	-2.15006E-001	4.86620E-006	0.00000E+000	-2.14977E-001	0.00000E+000	7	...........	0
	288	28.9	-2.12023E-001	5.02324E-006	0.00000E+000	-2.11977E-001	0.00000E+000	7	...........	0
	291	29.2	-2.09030E-001	5.29165E-006	0.00000E+000	-2.08977E-001	0.00000E+000	7	...........	0
	294	29.5	-2.06027E-001	4.70982E-006	0.00000E+000	-2.05976E-001	0.00000E+000	7	...........	0
	297	29.8	-2.03004E-001	4.98456E-006	0.00000E+000	-2.02976E-001	0.00000E+000	7	...........	0
	300	30.1	-1.99971E-001	4.71516E-006	0.00000E+000	-1.99976E-001	0.00000E+000	7	...........	0
	303	30.4	-1.96978E-001	4.20001E-006	0.00000E+000	-1.96976E-001	0.00000E+000	7	...........	0
	306	30.7	-1.93915E-001	3.70721E-006	0.00000E+000	-1.93976E-001	0.00000E+000	7	...........	0
	309	31	-1.90962E-001	3.82858E-006	0.00000E+000	-1.90976E-001	0.00000E+000	7	...........	0
	312	31.3	-1.87939E-001	4.20735E-006	0.00000E+000	-1.87976E-001	0.00000E+000	7	...........	0
	315	31.6	-1.85007E-001	3.73522E-006	0.00000E+000	-1.84976E-001	0.00000E+000	7	...........	0
	318	31.9	-1.81974E-001	3.61785E-006	0.00000E+000	-1.81975E-001	0.00000E+000	7	...........	0
	321	32.2	-1.78981E-001	3.63953E-006	0.00000E+000	-1.78975E-001	0.00000E+000	7	...........	0
	324	32.5	-1.75978E-001	3.89626E-006	0.00000E+000	-1.75975E-001	0.00000E+000	7	...........	0
	327	32.8	-1.72975E-001	4.48476E-006	0.00000E+000	-1.72975E-001	0.00000E+000	7	...........	0
	330	33.1	-1.69952E-001	4.39007E-006	0.00000E+000	-1.69975E-001	0.00000E+000	7	...........	0
	333	33.4	-1.67019E-001	4.28004E-006	0.00000E+000	-1.67025E-001	0.00000E+000	7	...........	0
	336	33.7	-1.64046E-001	4.19668E-006	0.00000E+000	-1.64025E-001	0.00000E+000	7	...........	0
	339	34	-1.61033E-001	3.86092E-006	0.00000E+000	-1.61025E-001	0.00000E+000	7	...........	0
	342	34.3	-1.58030E-001	4.23836E-006	0.00000E+000	-1.58025E-001	0.00000E+000	7	...........	0
	345	34.6	-1.55007E-001	4.23769E-006	0.00000E+000	-1.55024E-001	0.00000E+000	7	...........	0
	348	34.9	-1.52064E-001	5.02891E-006	0.00000E+000	-1.52024E-001	0.00000E+000	7	...........	0
	351	35.2	-1.49031E-001	3.95962E-006	0.00000E+000	-1.49024E-001	0.00000E+000	7	...........	0
	354	35.5	-1.46038E-001	4.06765E-006	0.00000E+000	-1.46024E-001	0.00000E+000	7	...........	0
	357	35.8	-1.43065E-001	4.60413E-006	0.00000E+000	-1.43024E-001	0.00000E+000	7	...........	0
	360	36.1	-1.40022E-001	4.60579E-006	0.00000E+000	-1.40024E-001	0.00000E+000	7	...........	0
	363	36.4	-1.37039E-001	4.97856E-006	0.00000E+000	-1.37024E-001	0.00000E+000	7	...........	0
	366	36.7	-1.34076E-001	4.89254E-006	0.00000E+000	-1.34024E-001	0.00000E+000	7	...........	0
	369	37	-1.31083E-001	4.57378E-006	0.00000E+000	-1.31023E-001	0.00000E+000	7	...........	0
	372	37.3	-1.28070E-001	4.04464E-006	0.00000E+000	-1.28023E-001	0.00000E+000	7	...........	0
	375	37.6	-1.25047E-001	4.80985E-006	0.00000E+000	-1.25023E-001	0.00000E+000	7	...........	0
	378	37.9	-1.22054E-001	4.60846E-006	0.00000E+000	-1.22023E-001	0.00000E+000	7	...........	0
	381	38.2	-1.19031E-001	3.96462E-006	0.00000E+000	-1.19023E-001	0.00000E+000	7	...........	0
	384	38.5	-1.16048E-001	3.91160E-006	0.00000E+000	-1.16023E-001	0.00000E+000	7	...........	0
	387	38.8	-1.13035E-001	4.59746E-006	0.00000E+000	-1.13023E-001	0.00000E+000	7	...........	0
	390	39.1	-1.10082E-001	4.49876E-006	0.00000E+000	-1.10023E-001	0.00000E+000	7	...........	0
	393	39.4	-1.07019E-001	4.97890E-006	0.00000E+000	-1.07022E-001	0.00000E+000	7	...........	0
	396	39.7	-1.04036E-001	4.99023E-006	0.00000E+000	-1.04022E-001	0.00000E+000	7	...........	0
	399	40	-1.01073E-001	5.04458E-006	0.00000E+000	-1.01022E-001	0.00000E+000	7	...........	0
	402	40.3	-9.80600E-002	4.94022E-006	0.00000E+000	-9.80221E-002	0.00000E+000	7	...........	0
	405	40.6	-9.50670E-002	3.74022E-006	0.00000E+000	-9.50219E-002	0.00000E+000	7	...........	0
	408	40.9	-9.20440E-002	3.24575E-006	0.00000E+000	-9.20218E-002	0.00000E+000	7	...........	0
	411	41.2	-8.90610E-002	2.85631E-006	0.00000E+000	-8.90217E-002	0.00000E+000	7	...........	0
	414	41.5	-8.60280E-002	1.83370E-006	0.00000E+000	-8.60216E-002	0.00000E+000	7	...........	0
	417	41.8	-8.30450E-002	1.51828E-006	0.00000E+000	-8.30214E-002	0.00000E+000	7	...........	0
	420	42.1	-8.00420E-002	1.89471E-006	0.00000E+000	-8.00213E-002	0.00000E+000	7	...........	0
	423	42.4	-7.70090E-002	1.35290E-006	0.00000E+000	-7.70212E-002	0.00000E+000	7	...........	0
	426	42.7	-7.40261E-002	1.46460E-006	0.00000E+000	-7.40211E-002	0.00000E+000	7	...........	0
	429	43	-7.10631E-002	1.79735E-006	0.00000E+000	-7.10210E-002	0.00000E+000	7	...........	0
	432	43.3	-6.80601E-002	2.28449E-006	0.00000E+000	-6.80208E-002	0.00000E+000	7	...........	0
	435	43.6	-6.50872E-002	2.57123E-006	0.00000E+000	-6.50207E-002	0.00000E+000	7	...........	0
	438	43.9	-6.20241E-002	1.71500E-006	0.00000E+000	-6.20206E-002	0.00000E+000	7	...........	0
	441	44.2	-5.90512E-002	1.90939E-006	0.00000E+000	-5.90205E-002	0.00000E+000	7	...........	0
	444	44.5	-5.60682E-002	2.33150E-006	0.00000E+000	-5.60203E-002	0.00000E+000	7	...........	0
	447	44.8	-5.30652E-002	1.52561E-006	0.00000E+000	-5.30202E-002	0.00000E+000	7	...........	0
	450	45.1	-5.00622E-002	1.47593E-006	0.00000E+000	-5.00201E-002	0.00000E+000	7	...........	0
	453	45.4	-4.70692E-002	1.38924E-006	0.00000E+000	-4.70200E-002	0.00000E+000	7	...........	0
	456	45.7	-4.40863E-002	1.83170E-006	0.00000E+000	-4.40199E-002	0.00000E+000	7	...........	0
	459	46	-4.10833E-002	1.91439E-006	0.00000E+000	-4.10197E-002	0.00000E+000	7	...........	0
	462	46.3	-3.80703E-002	2.99302E-006	0.00000E+000	-3.80196E-002	0.00000E+000	7	...........	0
	465	46.6	-3.50673E-002	3.65086E-006	0.00000E+000	-3.50195E-002	0.00000E+000	7	...........	0
	468	46.9	-3.20543E-002	3.10238E-006	0.00000E+000	-3.20194E-002	0.00000E+000	7	...........	0
	471	47.2	-2.91013E-002	1.87571E-006	0.00000E+000	-2.90192E-002	0.00000E+000	7	...........	0
	474	47.5	-2.61584E-002	2.03842E-006	0.00000E+000	-2.60191E-002	0.00000E+000	7	...........	0
	477	47.8	-2.30941E-002	2.19146E-006	0.00000E+000	-2.30190E-002	0.00000E+000	7	...........	0
	480	48.1	-2.00741E-002	3.33178E-006	0.00000E+000	-2.00189E-002	0.00000E+000	7	.....h.....	0
	483	48.4	-1.71002E-002	2.69860E-006	0.00000E+000	-1.70187E-002	0.00000E+000	7	...........	0
	486	48.7	-1.41252E-002	2.80630E-006	0.00000E+000	-1.40186E-002	0.00000E+000	7	...........	0
	489	49	-1.11062E-002	2.42486E-006	0.00000E+000	-1.10185E-002	0.00000E+000	7	...........	0
	492	49.3	-8.12323E-003	3.15773E-006	0.00000E+000	-8.01838E-003	0.00000E+000	7	...........	0
	495	49.6	-5.09922E-003	3.60885E-006	0.00000E+000	-5.01826E-003	0.00000E+000	7	...........	0
	498	49.9	-2.09523E-003	3.64453E-006	0.00000E+000	-2.01814E-003	0.00000E+000	7	...........	0
	501	50.2	8.64713E-004	5.13594E-006	0.00000E+000	9.81987E-004	0.00000E+000	7	...........	0
	504	50.5	3.88672E-003	5.65575E-006	0.00000E+000	3.98211E-003	0.00000E+000	7	...........	0
	507	50.8	6.86469E-003	6.19790E-006	0.00000E+000	6.98223E-003	0.00000E+000	7	...........	0
	510	51.1	9.90071E-003	7.11515E-006	0.00000E+000	9.98235E-003	0.00000E+000	7	...........	0
	513	51.4	1.28607E-002	6.51198E-006	0.00000E+000	1.29825E-002	0.00000E+000	7	...........	0
	516	51.7	1.58727E-002	7.14616E-006	0.00000E+000	1.59826E-002	0.00000E+000	7	...........	0
	519	52	1.88756E-002	7.82101E-006	0.00000E+000	1.89827E-002	0.00000E+000	7	...........	0
	522	52.3	2.18626E-002	7.09414E-006	0.00000E+000	2.19828E-002	0.00000E+000	7	...........	0
	525	52.6	2.48145E-002	7.06380E-006	0.00000E+000	2.49830E-002	0.00000E+000	7	...........	0
	528	52.9	2.78854E-002	7.28786E-006	0.00000E+000	2.79831E-002	0.00000E+000	7	...........	0
	531	53.2	3.08784E-002	6.86541E-006	0.00000E+000	3.09832E-002	0.00000E+000	7	...........	0
	534	53.5	3.39014E-002	6.04886E-006	0.00000E+000	3.39833E-002	0.00000E+000	7	...........	0
	537	53.8	3.69144E-002	6.78839E-006	0.00000E+000	3.69835E-002	0.00000E+000	7	...........	0
	540	54.1	3.98773E-002	5.66475E-006	0.00000E+000	3.99836E-002	0.00000E+000	7	...........	0
	543	54.4	4.29003E-002	7.34321E-006	0.00000E+000	4.29837E-002	0.00000E+000	7	...........	0
	546	54.7	4.58733E-002	6.59067E-006	0.00000E+000	4.59838E-002	0.00000E+000	7	...........	0
	549	55	4.88562E-002	6.36161E-006	0.00000E+000	4.89840E-002	0.00000E+000	7	...........	0
	552	55.3	5.19293E-002	5.81568E-006	0.00000E+000	5.19841E-002	0.00000E+000	8	...........	0
	555	55.6	5.49523E-002	6.04236E-006	0.00000E+000	5.49842E-002	0.00000E+000	8	...........	0
	558	55.9	5.79253E-002	5.87902E-006	0.00000E+000	5.79843E-002	0.00000E+000	8	...........	0
	561	56.2	6.09082E-002	6.26571E-006	0.00000E+000	6.09844E-002	0.00000E+000	8	...........	0
	564	56.5	6.39413E-002	7.17578E-006	0.00000E+000	6.39846E-002	0.00000E+000	8	...........	0
	567	56.8	6.69242E-002	7.79915E-006	0.00000E+000	6.69847E-002	0.00000E+000	8	...........	0
	570	57.1	6.98872E-002	8.48319E-006	0.00000E+000	6.99848E-002	0.00000E+000	7	...........	0
	573	57.4	7.29502E-002	7.86582E-006	0.00000E+000	7.29849E-002	0.00000E+000	8	...........	0
	576	57.7	7.59132E-002	8.01583E-006	0.00000E+000	7.59851E-002	0.00000E+000	8	...........	0
	579	58	7.88761E-002	9.92725E-006	0.00000E+000	7.89852E-002	0.00000E+000	7	...........	0
	582	58.3	8.18991E-002	1.04247E-005	0.00000E+000	8.19853E-002	0.00000E+000	7	.....h.....	0
	585	58.6	8.49422E-002	1.01040E-005	0.00000E+000	8.49854E-002	0.00000E+000	7	...........	0
	588	58.9	8.78250E-002	1.03727E-005	0.00000E+000	8.79855E-002	0.00000E+000	7	....ih.....	0
	591	59.2	9.08881E-002	1.09265E-005	0.00000E+000	9.09857E-002	0.00000E+000	7	....ih..i..	0
	594	59.5	9.39311E-002	1.00516E-005	0.00000E+000	9.39858E-002	0.00000E+000	7	...........	0
	597	59.8	9.68440E-002	8.98566E-006	0.00000E+000	9.69859E-002	0.00000E+000	7	...........	0
	600	60.1	9.98970E-002	9.50594E-006	0.00000E+000	9.99860E-002	0.00000E+000	8	...........	0
	603	60.4	1.02920E-001	1.01526E-005	0.00000E+000	1.02986E-001	0.00000E+000	8	...........	0
	606	60.7	1.05923E-001	8.84589E-006	0.00000E+000	1.05986E-001	0.00000E+000	8	...........	0
	609	61	1.08906E-001	8.92256E-006	0.00000E+000	1.08986E-001	0.00000E+000	8	...........	0
	612	61.3	1.11889E-001	9.62595E-006	0.00000E+000	1.11987E-001	0.00000E+000	8	...........	0
	615	61.6	1.14882E-001	9.69928E-006	0.00000E+000	1.14987E-001	0.00000E+000	8	...........	0
	618	61.9	1.17915E-001	1.06760E-005	0.00000E+000	1.17987E-001	0.00000E+000	8	...........	0
	621	62.2	1.20918E-001	1.16361E-005	0.00000E+000	1.20987E-001	0.00000E+000	8	...........	0
	624	62.5	1.23901E-001	1.27928E-005	0.00000E+000	1.23987E-001	0.00000E+000	8	...........	0
	627	62.8	1.26924E-001	1.25795E-005	0.00000E+000	1.26987E-001	0.00000E+000	8	...........	0
	630	63.1	1.29917E-001	1.23395E-005	0.00000E+000	1.29987E-001	0.00000E+000	8	...........	0
	633	63.4	1.32950E-001	1.14794E-005	0.00000E+000	1.32987E-001	0.00000E+000	8	...........	0
	636	63.7	1.35933E-001	1.27895E-005	0.00000E+000	1.35988E-001	0.00000E+000	8	...........	0
	639	64	1.38996E-001	1.14294E-005	0.00000E+000	1.38988E-001	0.00000E+000	8	...........	0
	642	64.3	1.41939E-001	1.07860E-005	0.00000E+000	1.41988E-001	0.00000E+000	8	...........	0
	645	64.6	1.44912E-001	9.59594E-006	0.00000E+000	1.44988E-001	0.00000E+000	8	...........	0
	648	64.9	1.47905E-001	1.25228E-005	0.00000E+000	1.47988E-001	0.00000E+000	8	...........	0
	651	65.2	1.50858E-001	1.35062E-005	0.00000E+000	1.50988E-001	0.00000E+000	8	...........	0
	654	65.5	1.53891E-001	1.35529E-005	0.00000E+000	1.53988E-001	0.00000E+000	8	...........	0
	657	65.8	1.56864E-001	1.09265E-005	0.00000E+000	1.56988E-001	0.00000E+000	7	....ih..i..	0
	660	66.1	1.59927E-001	1.45996E-005	0.00000E+000	1.59988E-001	0.00000E+000	8	...........	0
	663	66.4	1.62900E-001	1.40663E-005	0.00000E+000	1.62989E-001	0.00000E+000	8	...........	0
	666	66.7	1.65923E-001	1.45363E-005	0.00000E+000	1.65989E-001	0.00000E+000	8	...........	0
	669	67	1.68916E-001	1.40963E-005	0.00000E+000	1.68989E-001	0.00000E+000	8	...........	0
	672	67.3	1.71919E-001	1.23295E-005	0.00000E+000	1.71989E-001	0.00000E+000	8	...........	0
	675	67.6	1.74922E-001	1.11561E-005	0.00000E+000	1.74989E-001	0.00000E+000	8	...........	0
	678	67.9	1.77925E-001	1.08094E-005	0.00000E+000	1.77989E-001	0.00000E+000	8	...........	0
	681	68.2	1.80898E-001	1.21061E-005	0.00000E+000	1.80989E-001	0.00000E+000	8	...........	0
	684	68.5	1.83911E-001	1.17961E-005	0.00000E+000	1.83989E-001	0.00000E+000	8	...........	0
	687	68.8	1.86934E-001	9.99931E-006	0.00000E+000	1.86990E-001	0.00000E+000	8	...........	0
	690	69.1	1.89917E-001	9.66595E-006	0.00000E+000	1.89990E-001	0.00000E+000	8	...........	0
	693	69.4	1.92910E-001	9.54927E-006	0.00000E+000	1.92990E-001	0.00000E+000	8	...........	0
	696	69.7	1.95953E-001	1.14461E-005	0.00000E+000	1.95990E-001	0.00000E+000	8	...........	0
	699	70	1.98916E-001	9.85930E-006	0.00000E+000	1.98990E-001	0.00000E+000	8	...........	0
	702	70.3	2.01919E-001	8.82256E-006	0.00000E+000	2.01990E-001	0.00000E+000	8	...........	0
	705	70.6	2.04892E-001	9.52927E-006	0.00000E+000	2.04990E-001	0.00000E+000	8	...........	0
	708	70.9	2.07915E-001	7.53247E-006	0.00000E+000	2.07990E-001	0.00000E+000	8	...........	0
	711	71.2	2.10928E-001	8.44253E-006	0.00000E+000	2.10991E-001	0.00000E+000	8	...........	0
	714	71.5	2.13901E-001	6.58907E-006	0.00000E+000	2.13991E-001	0.00000E+000	8	...........	0
	717	71.8	2.16914E-001	7.15244E-006	0.00000E+000	2.16991E-001	0.00000E+000	8	...........	0
	720	72.1	2.19886E-001	7.02910E-006	0.00000E+000	2.19991E-001	0.00000E+000	8	...........	0
	723	72.4	2.22899E-001	6.15570E-006	0.00000E+000	2.22991E-001	0.00000E+000	8	...........	0
	726	72.7	2.25882E-001	7.74248E-006	0.00000E+000	2.25991E-001	0.00000E+000	8	...........	0
	729	73	2.28905E-001	8.15584E-006	0.00000E+000	2.28991E-001	0.00000E+000	8	...........	0
	732	73.3	2.31848E-001	8.14251E-006	0.00000E+000	2.31991E-001	0.00000E+000	8	...........	0
	735	73.6	2.34901E-001	7.24578E-006	0.00000E+000	2.34992E-001	0.00000E+000	8	...........	0
	738	73.9	2.37924E-001	9.49260E-006	0.00000E+000	2.37992E-001	0.00000E+000	8	...........	0
	741	74.2	2.40837E-001	7.57580E-006	0.00000E+000	2.40992E-001	0.00000E+000	8	...........	0
	744	74.5	2.43930E-001	9.46927E-006	0.00000E+000	2.43992E-001	0.00000E+000	8	...........	0
	747	74.8	2.46893E-001	8.22585E-006	0.00000E+000	2.46992E-001	0.00000E+000	8	...........	0
	750	75.1	2.49866E-001	9.07591E-006	0.00000E+000	2.49992E-001	0.00000E+000	8	...........	0
	753	75.4	2.52899E-001	8.16584E-006	0.00000E+000	2.52992E-001	0.00000E+000	8	...........	0
	756	75.7	2.55882E-001	8.19585E-006	0.00000E+000	2.55992E-001	0.00000E+000	8	...........	0
	759	76	2.58915E-001	9.29592E-006	0.00000E+000	2.58993E-001	0.00000E+000	8	...........	0
	762	76.3	2.61838E-001	8.46586E-006	0.00000E+000	2.61993E-001	0.00000E+000	8	...........	0
	765	76.6	2.64861E-001	1.10060E-005	0.00000E+000	2.64993E-001	0.00000E+000	8	...........	0
	768	76.9	2.67955E-001	9.97930E-006	0.00000E+000	2.67993E-001	0.00000E+000	8	...........	0
	771	77.2	2.71058E-001	1.12627E-005	0.00000E+000	2.70993E-001	0.00000E+000	8	...........	0
	774	77.5	2.74161E-001	1.38062E-005	0.00000E+000	2.73993E-001	0.00000E+000	8	...........	0
	777	77.8	2.77064E-001	1.78099E-005	0.00000E+000	2.76993E-001	0.00000E+000	8	...........	0
	780	78.1	2.79967E-001	1.34462E-005	0.00000E+000	2.79993E-001	0.00000E+000	8	...........	0
	783	78.4	2.83170E-001	1.49897E-005	0.00000E+000	2.82993E-001	0.00000E+000	8	...........	0
	786	78.7	2.86073E-001	1.20028E-005	0.00000E+000	2.85994E-001	0.00000E+000	8	...........	0
	789	79	2.89076E-001	1.10160E-005	0.00000E+000	2.88994E-001	0.00000E+000	8	...........	0
	792	79.3	2.92079E-001	1.19928E-005	0.00000E+000	2.91994E-001	0.00000E+000	8	...........	0
	795	79.6	2.95082E-001	1.47163E-005	0.00000E+000	2.94994E-001	0.00000E+000	8	...........	0
	798	79.9	2.98085E-001	1.20628E-005	0.00000E+000	2.97994E-001	0.00000E+000	8	...........	0
	801	80.2	3.01188E-001	1.28828E-005	0.00000E+000	3.00994E-001	0.00000E+000	8	...........	0
	804	80.5	3.03991E-001	1.29695E-005	0.00000E+000	3.03994E-001	0.00000E+000	8	...........	0
	807	80.8	3.07094E-001	1.24328E-005	0.00000E+000	3.06994E-001	0.00000E+000	8	...........	0
	810	81.1	3.09997E-001	1.22128E-005	0.00000E+000	3.09995E-001	0.00000E+000	8	...........	0
	813	81.4	3.13000E-001	1.32095E-005	0.00000E+000	3.12995E-001	0.00000E+000	8	...........	0
	816	81.7	3.16003E-001	1.38262E-005	0.00000E+000	3.15995E-001	0.00000E+000	8	...........	0
	819	82	3.19006E-001	1.35429E-005	0.00000E+000	3.18995E-001	0.00000E+000	8	...........	0
	822	82.3	3.22109E-001	1.35095E-005	0.00000E+000	3.21995E-001	0.00000E+000	8	...........	0
	825	82.6	3.25012E-001	1.32529E-005	0.00000E+000	3.24995E-001	0.00000E+000	8	...........	0
	828	82.9	3.28015E-001	1.36829E-005	0.00000E+000	3.27995E-001	0.00000E+000	8	...........	0
	831	83.2	3.31118E-001	1.44096E-005	0.00000E+000	3.30995E-001	0.00000E+000	8	...........	0
	834	83.5	3.34021E-001	1.34762E-005	0.00000E+000	3.33996E-001	0.00000E+000	8	...........	0
	837	83.8	3.37124E-001	1.54230E-005	0.00000E+000	3.36996E-001	0.00000E+000	8	...........	0
	840	84.1	3.40127E-001	1.46830E-005	0.00000E+000	3.39996E-001	0.00000E+000	8	...........	0
	843	84.4	3.43030E-001	1.63998E-005	0.00000E+000	3.42996E-001	0.00000E+000	8	...........	0
	846	84.7	3.46033E-001	1.67931E-005	0.00000E+000	3.45996E-001	0.00000E+000	8	...........	0
	849	85	3.49036E-001	2.58537E-005	0.00000E+000	3.48996E-001	0.00000E+000	8	...........	0
	852	85.3	3.52039E-001	2.41070E-005	0.00000E+000	3.51996E-001	0.00000E+000	8	...........	0
	855	85.6	3.55042E-001	2.29169E-005	0.00000E+000	3.54996E-001	0.00000E+000	8	...........	0
	858	85.9	3.58044E-001	2.21268E-005	0.00000E+000	3.57997E-001	0.00000E+000	8	...........	0
	861	86.2	3.61047E-001	2.05300E-005	0.00000E+000	3.60997E-001	0.00000E+000	8	...........	0
	864	86.5	3.64050E-001	2.04467E-005	0.00000E+000	3.63997E-001	0.00000E+000	8	...........	0
	867	86.8	3.67053E-001	1.98367E-005	0.00000E+000	3.66997E-001	0.00000E+000	8	...........	0
	870	87.1	3.70056E-001	1.99067E-005	0.00000E+000	3.69997E-001	0.00000E+000	8	...........	0
	873	87.4	3.73059E-001	2.07334E-005	0.00000E+000	3.72997E-001	0.00000E+000	8	...........	0
	876	87.7	3.76162E-001	1.91133E-005	0.00000E+000	3.75997E-001	0.00000E+000	8	...........	0
	879	88	3.79065E-001	2.03067E-005	0.00000E+000	3.78997E-001	0.00000E+000	8	...........	0
	882	88.3	3.82068E-001	2.25435E-005	0.00000E+000	3.81998E-001	0.00000E+000	8	...........	0
	885	88.6	3.84971E-001	2.28369E-005	0.00000E+000	3.84998E-001	0.00000E+000	8	...........	0
	888	88.9	3.88174E-001	2.50437E-005	0.00000E+000	3.87998E-001	0.00000E+000	8	...........	0
	891	89.2	3.91077E-001	2.65738E-005	0.00000E+000	3.90998E-001	0.00000E+000	8	...........	0
	894	89.5	3.94080E-001	2.77505E-005	0.00000E+000	3.93998E-001	0.00000E+000	8	...........	0
	897	89.8	3.97083E-001	3.30209E-005	0.00000E+000	3.96998E-001	0.00000E+000	8	...........	0
	900	90.1	4.00086E-001	3.15508E-005	0.00000E+000	3.99998E-001	0.00000E+000	8	...........	0
	903	90.4	4.03089E-001	3.07241E-005	0.00000E+000	4.02998E-001	0.00000E+000	8	...........	0
	906	90.7	4.06092E-001	3.02874E-005	0.00000E+000	4.05999E-001	0.00000E+000	8	...........	0
	909	91	4.09095E-001	3.46444E-005	0.00000E+000	4.08999E-001	0.00000E+000	8	...........	0
	912	91.3	4.12098E-001	3.69345E-005	0.00000E+000	4.11999E-001	0.00000E+000	8	...........	0
	915	91.6	4.15101E-001	3.96214E-005	0.00000E+000	4.14999E-001	0.00000E+000	8	...........	0
	918	91.9	4.18104E-001	3.80946E-005	0.00000E+000	4.17999E-001	0.00000E+000	8	...........	0
	921	92.2	4.21107E-001	3.69379E-005	0.00000E+000	4.20999E-001	0.00000E+000	8	...........	0
	924	92.5	4.24110E-001	3.42610E-005	0.00000E+000	4.23999E-001	0.00000E+000	8	...........	0
	927	92.8	4.27113E-001	3.32276E-005	0.00000E+000	4.26999E-001	0.00000E+000	8	...........	0
	930	93.1	4.30016E-001	3.29509E-005	0.00000E+000	4.30000E-001	0.00000E+000	8	...........	0
	933	93.4	4.33119E-001	3.48310E-005	0.00000E+000	4.33000E-001	0.00000E+000	8	...........	0
	936	93.7	4.36022E-001	3.54444E-005	0.00000E+000	4.36000E-001	0.00000E+000	8	...........	0
	939	94	4.39125E-001	3.44143E-005	0.00000E+000	4.39000E-001	0.00000E+000	8	...........	0
	942	94.3	4.42128E-001	3.56478E-005	0.00000E+000	4.42000E-001	0.00000E+000	8	...........	0
	945	94.6	4.45031E-001	3.70245E-005	0.00000E+000	4.45000E-001	0.00000E+000	8	...........	0
	948	94.9	4.48134E-001	3.79313E-005	0.00000E+000	4.48000E-001	0.00000E+000	8	...........	0
	951	95.2	4.51137E-001	3.98281E-005	0.00000E+000	4.51000E-001	0.00000E+000	8	...........	0
	954	95.5	4.54140E-001	4.31316E-005	0.00000E+000	4.54001E-001	0.00000E+000	8	...........	0
	957	95.8	4.57043E-001	4.20282E-005	0.00000E+000	4.57001E-001	0.00000E+000	8	...........	0
	960	96.1	4.60046E-001	4.36683E-005	0.00000E+000	4.60001E-001	0.00000E+000	8	...........	0
	963	96.4	4.63149E-001	4.63518E-005	0.00000E+000	4.63001E-001	0.00000E+000	8	...........	0
	966	96.7	4.66152E-001	4.59585E-005	0.00000E+000	4.66001E-001	0.00000E+000	8	...........	0
	969	97	4.69155E-001	4.66485E-005	0.00000E+000	4.69001E-001	0.00000E+000	8	...........	0
	972	97.3	4.72058E-001	4.77486E-005	0.00000E+000	4.72001E-001	0.00000E+000	8	...........	0
	975	97.6	4.75161E-001	5.10555E-005	0.00000E+000	4.75001E-001	0.00000E+000	8	...........	0
	978	97.9	4.78164E-001	5.07422E-005	0.00000E+000	4.78001E-001	0.00000E+000	8	...........	0
	981	98.2	4.81067E-001	5.44424E-005	0.00000E+000	4.81002E-001	0.00000E+000	8	...........	0
	984	98.5	4.84070E-001	6.00828E-005	0.00000E+000	4.84002E-001	0.00000E+000	8	...........	0
	987	98.8	4.86973E-001	6.36897E-005	0.00000E+000	4.87002E-001	0.00000E+000	8	...........	0
	990	99.1	4.90076E-001	6.61432E-005	0.00000E+000	4.90002E-001	0.00000E+000	8	...........	0
	993	99.4	4.93079E-001	6.55732E-005	0.00000E+000	4.93002E-001	0.00000E+000	8	...........	0
	996	99.7	4.96182E-001	6.55699E-005	0.00000E+000	4.96002E-001	0.00000E+000	8	...........	0
	999	100	4.98985E-001	6.60466E-005	0.00000E+000	4.99002E-001	0.00000E+000	8	...........	0
	1002	100.3	5.02088E-001	6.71866E-005	0.00000E+000	5.02002E-001	0.00000E+000	8	...........	0
	1005	100.6	5.05091E-001	6.94735E-005	0.00000E+000	5.05003E-001	0.00000E+000	8	...........	0
	1008	100.9	5.08094E-001	6.68133E-005	0.00000E+000	5.08003E-001	0.00000E+000	8	...........	0
	1011	101.2	5.10997E-001	6.91701E-005	0.00000E+000	5.11003E-001	0.00000E+000	8	...........	0
	1014	101.5	5.14100E-001	6.97101E-005	0.00000E+000	5.14003E-001	0.00000E+000	8	...........	0
	1017	101.8	5.17103E-001	6.89634E-005	0.00000E+000	5.17003E-001	0.00000E+000	8	...........	0
	1020	102.1	5.20106E-001	6.92234E-005	0.00000E+000	5.20003E-001	0.00000E+000	8	...........	0
	1023	102.4	5.23209E-001	7.12436E-005	0.00000E+000	5.23003E-001	0.00000E+000	8	...........	0
	1026	102.7	5.26112E-001	7.30304E-005	0.00000E+000	5.26003E-001	0.00000E+000	8	...........	0
	1029	103	5.29115E-001	7.50005E-005	0.00000E+000	5.29004E-001	0.00000E+000	8	...........	0
	1032	103.3	5.32118E-001	7.70956E-005	0.00000E+000	5.32004E-001	0.00000E+000	9	...........	0
	1035	103.6	5.35121E-001	8.22544E-005	0.00000E+000	5.35004E-001	0.00000E+000	8	...........	0
	1038	103.9	5.38124E-001	8.10909E-005	0.00000E+000	5.38004E-001	0.00000E+000	9	...........	0
	1041	104.2	5.41027E-001	9.15786E-005	0.00000E+000	5.41004E-001	0.00000E+000	9	...........	0
	1044	104.5	5.44130E-001	8.80161E-005	0.00000E+000	5.44004E-001	0.00000E+000	9	...........	0
	1047	104.8	5.47133E-001	8.86487E-005	0.00000E+000	5.47004E-001	0.00000E+000	9	...........	0
	1050	105.1	5.50136E-001	8.84823E-005	0.00000E+000	5.50004E-001	0.00000E+000	9	...........	0
	1053	105.4	5.53139E-001	9.14121E-005	0.00000E+000	5.53005E-001	0.00000E+000	9	...........	0
	1056	105.7	5.56242E-001	9.28771E-005	0.00000E+000	5.56005E-001	0.00000E+000	9	...........	0
	1059	106	5.58944E-001	9.39092E-005	0.00000E+000	5.59005E-001	0.00000E+000	9	...........	0
	1062	106.3	5.62148E-001	9.87369E-005	0.00000E+000	5.62005E-001	0.00000E+000	9	...........	0
	1065	106.6	5.65051E-001	1.06195E-004	0.00000E+000	5.65005E-001	0.00000E+000	9	...........	0
	1068	106.9	5.68053E-001	1.08892E-004	0.00000E+000	5.68005E-001	0.00000E+000	9	...........	0
	1071	107.2	5.71157E-001	1.06128E-004	0.00000E+000	5.71005E-001	0.00000E+000	9	...........	0
	1074	107.5	5.74260E-001	1.09125E-004	0.00000E+000	5.74005E-001	0.00000E+000	9	...........	0
	1077	107.8	5.77163E-001	1.11988E-004	0.00000E+000	5.77006E-001	0.00000E+000	9	...........	0
	1080	108.1	5.80065E-001	1.14418E-004	0.00000E+000	5.80006E-001	0.00000E+000	9	...........	0
	1083	108.4	5.83068E-001	1.15883E-004	0.00000E+000	5.83006E-001	0.00000E+000	9	...........	0
	1086	108.7	5.86071E-001	1.19912E-004	0.00000E+000	5.86006E-001	0.00000E+000	9	...........	0
	1089	109	5.89074E-001	1.25306E-004	0.00000E+000	5.89006E-001	0.00000E+000	9	...........	0
	1092	109.3	5.92178E-001	1.29035E-004	0.00000E+000	5.92006E-001	0.00000E+000	9	...........	0
	1095	109.6	5.95281E-001	1.36559E-004	0.00000E+000	5.95006E-001	0.00000E+000	9	...........	0
	1098	109.9	5.98184E-001	1.40754E-004	0.00000E+000	5.98006E-001	0.00000E+000	9	...........	0
	1100	110.1	6.00186E-001	1.34362E-004	0.00000E+000	6.00006E-001	0.00000E+000	9	...........	0