File: LSV ZFO/ZFO_chop_reator.DTA
EXPLAIN
TAG	LSV
TITLE	LABEL	Linear Sweep Voltammetry	Test &Identifier
DATE	LABEL	7/5/2024	Date
TIME	LABEL	18:37:33	Time
NOTES	NOTES	1	&Notes...

PSTAT	PSTAT	L3FNano	Potentiostat
VINIT	POTEN	-5.00000E-001	F	&Initial E (V)
VFINAL	POTEN	6.00000E-001	F	&Final E (V)
SCANRATE	QUANT	9.99998E+000	&Scan Rate (mV/s)
STEPSIZE	QUANT	1.00000E+000	St&ep Size (mV)
IMODE	SELECTOR	0	I/E Range &Mode
IRANGE	QUANT	1.00000E+001	&Max Current (mA)
AREA	QUANT	1.00000E+000	Electrode &Area (cm^2)
ELECTRODETYPE	SELECTOR	0	Electrode Type
STRIPPING	TOGGLE	F	Used for Stripping
POLARITY	TOGGLE	F	Signal Polarity
CONDIT	TWOPARAM	F	1.50000E+001	0.00000E+000	Conditionin&g	Time(s)	E(V)
DELAY	TWOPARAM	F	3.00000E+001	0.00000E+000	Init. De&lay	Time(s)	Stab.(mV/s)
EQDELAY	QUANT	5.00000E+000	Equil. &Time (s)
IRCOMP	SELECTOR	0	IRCom&p
PFCOR	QUANT	5.00000E+001	PF Corr. (ohm)
SAMPLINGMODE	SELECTOR	0	Sampling &Mode
EOC	QUANT	0	Open Circuit (V)
PSTATMODEL	IQUANT	48	Pstat Model
PSTATSECTION	LABEL	IFC1000-07082	Pstat Section
PSTATSERIALNO	LABEL	07082	Pstat Serial Number
CTRLMODE	IQUANT	1	Control Mode
IESTAB	IQUANT	2	I/E Stability
CASPEED	IQUANT	2	Control Amp Speed
CONVENTION	IQUANT	1	Current Convention
ICHRANGE	IQUANT	2	Ich Range
ICHRANGEMODE	TOGGLE	F	Ich Auto Range
ICHOFFSETENABLE	TOGGLE	F	Ich Offset Enable
ICHOFFSET	QUANT	0	Ich Offset (V)
ICHFILTER	IQUANT	3	Ich Filter
VCHRANGE	IQUANT	2	Vch Range
VCHRANGEMODE	TOGGLE	T	Vch Auto Range
VCHOFFSETENABLE	TOGGLE	F	Vch Offset Enable
VCHOFFSET	QUANT	0	Vch Offset (V)
VCHFILTER	IQUANT	3	Vch Filter
IERANGELOWERLIMIT	IQUANT	4	I/E Range Lower Limit
IERANGEMODE	TOGGLE	T	I/E AutoRange
IERANGE	IQUANT	11	I/E Range
ACHSELECT	IQUANT	4	Ach Select
CABLEID	IQUANT	14	Cable ID
DCCALDATE	LABEL	7/3/2024	DC Calibration Date
ACCALDATE	LABEL	7/3/2024	AC Calibration Date
FRAMEWORKVERSION	QUANT	6.24	Framework Version
INSTRUMENTVERSION	LABEL	3.28	Instrument Version
CURVE	TABLE	1101
	Pt	T	Vf	Im	Vu	Sig	Ach	IERange	Over	Cycle
	#	s	V vs. Ref.	A	V	V	V	#	bits	#
	0	0.1	-5.00110E-001	-1.39019E-006	0.00000E+000	-4.99988E-001	0.00000E+000	11	...........	0
	3	0.4	-4.97107E-001	-4.44170E-006	0.00000E+000	-4.96988E-001	0.00000E+000	8	...........	0
	6	0.7	-4.94004E-001	-3.82386E-006	0.00000E+000	-4.93988E-001	0.00000E+000	7	...........	0
	9	1	-4.91001E-001	-3.45109E-006	0.00000E+000	-4.90988E-001	0.00000E+000	7	...........	0
	12	1.3	-4.88098E-001	-3.24103E-006	0.00000E+000	-4.87988E-001	0.00000E+000	7	...........	0
	15	1.6	-4.84995E-001	-2.93728E-006	0.00000E+000	-4.84988E-001	0.00000E+000	7	...........	0
	18	1.9	-4.81992E-001	-2.74023E-006	0.00000E+000	-4.81988E-001	0.00000E+000	7	...........	0
	21	2.2	-4.79089E-001	-2.52283E-006	0.00000E+000	-4.78988E-001	0.00000E+000	7	...........	0
	24	2.5	-4.76086E-001	-2.34678E-006	0.00000E+000	-4.75987E-001	0.00000E+000	7	...........	0
	27	2.8	-4.72983E-001	-2.24042E-006	0.00000E+000	-4.72987E-001	0.00000E+000	7	...........	0
	30	3.1	-4.70080E-001	-2.06037E-006	0.00000E+000	-4.69987E-001	0.00000E+000	7	...........	0
	33	3.4	-4.67077E-001	-1.94534E-006	0.00000E+000	-4.66987E-001	0.00000E+000	7	...........	0
	36	3.7	-4.64074E-001	-1.79397E-006	0.00000E+000	-4.63987E-001	0.00000E+000	7	...........	0
	39	4	-4.61071E-001	-1.71894E-006	0.00000E+000	-4.60987E-001	0.00000E+000	7	...........	0
	42	4.3	-4.58068E-001	-1.56957E-006	0.00000E+000	-4.57987E-001	0.00000E+000	7	...........	0
	45	4.6	-4.55065E-001	-1.43153E-006	0.00000E+000	-4.54987E-001	0.00000E+000	7	...........	0
	48	4.9	-4.52062E-001	-1.45954E-006	0.00000E+000	-4.51987E-001	0.00000E+000	7	...........	0
	51	5.2	-4.49059E-001	-1.29049E-006	0.00000E+000	-4.48986E-001	0.00000E+000	7	...........	0
	54	5.5	-4.45956E-001	-3.01555E-007	0.00000E+000	-4.45986E-001	0.00000E+000	7	...........	0
	57	5.8	-4.43053E-001	-9.29728E-007	0.00000E+000	-4.42986E-001	0.00000E+000	7	...........	0
	60	6.1	-4.40050E-001	-1.04743E-006	0.00000E+000	-4.39986E-001	0.00000E+000	7	...........	0
	63	6.4	-4.37047E-001	-1.09144E-006	0.00000E+000	-4.36986E-001	0.00000E+000	7	...........	0
	66	6.7	-4.34144E-001	-9.94079E-007	0.00000E+000	-4.33986E-001	0.00000E+000	7	...........	0
	69	7	-4.31041E-001	-9.65071E-007	0.00000E+000	-4.30986E-001	0.00000E+000	7	...........	0
	72	7.3	-4.28038E-001	-7.87356E-007	0.00000E+000	-4.27986E-001	0.00000E+000	7	...........	0
	75	7.6	-4.25035E-001	-7.93691E-007	0.00000E+000	-4.24985E-001	0.00000E+000	7	...........	0
	78	7.9	-4.22132E-001	-6.32980E-007	0.00000E+000	-4.21985E-001	0.00000E+000	7	...........	0
	81	8.2	-4.19129E-001	-5.36620E-007	0.00000E+000	-4.18985E-001	0.00000E+000	7	...........	0
	84	8.5	-4.16126E-001	-4.99943E-007	0.00000E+000	-4.15985E-001	0.00000E+000	7	...........	0
	87	8.8	-4.13123E-001	-4.22589E-007	0.00000E+000	-4.12985E-001	0.00000E+000	7	...........	0
	90	9.1	-4.10020E-001	-3.26896E-007	0.00000E+000	-4.09985E-001	0.00000E+000	7	...........	0
	93	9.4	-4.07117E-001	-2.62878E-007	0.00000E+000	-4.06985E-001	0.00000E+000	7	...........	0
	96	9.7	-4.04014E-001	-1.59183E-007	0.00000E+000	-4.03985E-001	0.00000E+000	7	...........	0
	99	10	-4.01011E-001	-1.11170E-007	0.00000E+000	-4.00984E-001	0.00000E+000	7	...........	0
	102	10.3	-3.98008E-001	-6.48238E-008	0.00000E+000	-3.97984E-001	0.00000E+000	7	...........	0
	105	10.6	-3.95105E-001	-3.86245E-007	0.00000E+000	-3.94984E-001	0.00000E+000	7	...........	0
	108	10.9	-3.92002E-001	-2.93887E-007	0.00000E+000	-3.91984E-001	0.00000E+000	7	...........	0
	111	11.2	-3.88999E-001	-2.57210E-007	0.00000E+000	-3.88984E-001	0.00000E+000	7	...........	0
	114	11.5	-3.86096E-001	-1.84523E-007	0.00000E+000	-3.85984E-001	0.00000E+000	7	...........	0
	117	11.8	-3.82993E-001	-1.51848E-007	0.00000E+000	-3.82984E-001	0.00000E+000	7	...........	0
	120	12.1	-3.79990E-001	-1.03168E-007	0.00000E+000	-3.79984E-001	0.00000E+000	7	...........	0
	123	12.4	-3.77087E-001	-8.61629E-008	0.00000E+000	-3.76983E-001	0.00000E+000	7	...........	0
	126	12.7	-3.74084E-001	2.08665E-008	0.00000E+000	-3.73983E-001	0.00000E+000	7	...........	0
	129	13	-3.70981E-001	4.22057E-008	0.00000E+000	-3.70983E-001	0.00000E+000	7	...........	0
	132	13.3	-3.68078E-001	3.72043E-008	0.00000E+000	-3.67983E-001	0.00000E+000	7	...........	0
	135	13.6	-3.65075E-001	3.45369E-008	0.00000E+000	-3.64983E-001	0.00000E+000	7	...........	0
	138	13.9	-3.61972E-001	1.01222E-007	0.00000E+000	-3.61983E-001	0.00000E+000	7	...........	0
	141	14.2	-3.59069E-001	1.14559E-007	0.00000E+000	-3.58983E-001	0.00000E+000	7	...........	0
	144	14.5	-3.56066E-001	9.82210E-008	0.00000E+000	-3.55983E-001	0.00000E+000	7	...........	0
	147	14.8	-3.53063E-001	8.68846E-008	0.00000E+000	-3.52982E-001	0.00000E+000	7	...........	0
	150	15.1	-3.50060E-001	1.21227E-007	0.00000E+000	-3.49982E-001	0.00000E+000	7	...........	0
	153	15.4	-3.47057E-001	6.55454E-008	0.00000E+000	-3.46982E-001	0.00000E+000	7	...........	0
	156	15.7	-3.44054E-001	8.63765E-007	0.00000E+000	-3.43982E-001	0.00000E+000	7	...........	0
	159	16	-3.41051E-001	7.33062E-007	0.00000E+000	-3.40982E-001	0.00000E+000	7	...........	0
	162	16.3	-3.37948E-001	6.80048E-007	0.00000E+000	-3.37982E-001	0.00000E+000	7	...........	0
	165	16.6	-3.35045E-001	6.30034E-007	0.00000E+000	-3.34982E-001	0.00000E+000	7	...........	0
	168	16.9	-3.31942E-001	5.55347E-007	0.00000E+000	-3.31982E-001	0.00000E+000	7	...........	0
	171	17.2	-3.29039E-001	4.92996E-007	0.00000E+000	-3.28982E-001	0.00000E+000	7	...........	0
	174	17.5	-3.26036E-001	5.32674E-007	0.00000E+000	-3.25981E-001	0.00000E+000	7	...........	0
	177	17.8	-3.23033E-001	4.78325E-007	0.00000E+000	-3.22981E-001	0.00000E+000	7	...........	0
	180	18.1	-3.20030E-001	4.84661E-007	0.00000E+000	-3.19981E-001	0.00000E+000	7	...........	0
	183	18.4	-3.16927E-001	4.40982E-007	0.00000E+000	-3.16981E-001	0.00000E+000	7	...........	0
	186	18.7	-3.13924E-001	4.59987E-007	0.00000E+000	-3.13981E-001	0.00000E+000	7	...........	0
	189	19	-3.11021E-001	4.30312E-007	0.00000E+000	-3.10981E-001	0.00000E+000	7	...........	0
	192	19.3	-3.08018E-001	4.36647E-007	0.00000E+000	-3.07981E-001	0.00000E+000	7	...........	0
	195	19.6	-3.05015E-001	4.14975E-007	0.00000E+000	-3.04981E-001	0.00000E+000	7	...........	0
	198	19.9	-3.02013E-001	4.33980E-007	0.00000E+000	-3.01980E-001	0.00000E+000	7	...........	0
	201	20.2	-2.99010E-001	4.15975E-007	0.00000E+000	-2.98980E-001	0.00000E+000	7	...........	0
	204	20.5	-2.96107E-001	5.86234E-009	0.00000E+000	-2.95980E-001	0.00000E+000	7	...........	0
	207	20.8	-2.93004E-001	-9.47521E-009	0.00000E+000	-2.92980E-001	0.00000E+000	7	...........	0
	210	21.1	-2.90101E-001	4.42062E-008	0.00000E+000	-2.89980E-001	0.00000E+000	7	...........	0
	213	21.4	-2.86998E-001	9.12191E-008	0.00000E+000	-2.86980E-001	0.00000E+000	7	...........	0
	216	21.7	-2.84095E-001	6.92131E-008	0.00000E+000	-2.83980E-001	0.00000E+000	7	...........	0
	219	22	-2.81092E-001	6.72125E-008	0.00000E+000	-2.80980E-001	0.00000E+000	7	...........	0
	222	22.3	-2.78089E-001	1.96248E-007	0.00000E+000	-2.77979E-001	0.00000E+000	7	...........	0
	225	22.6	-2.74986E-001	1.46568E-007	0.00000E+000	-2.74979E-001	0.00000E+000	7	...........	0
	228	22.9	-2.72083E-001	1.93914E-007	0.00000E+000	-2.71979E-001	0.00000E+000	7	...........	0
	231	23.2	-2.69080E-001	1.61238E-007	0.00000E+000	-2.68979E-001	0.00000E+000	7	...........	0
	234	23.5	-2.65977E-001	1.73909E-007	0.00000E+000	-2.65979E-001	0.00000E+000	7	...........	0
	237	23.8	-2.63074E-001	2.16253E-007	0.00000E+000	-2.62979E-001	0.00000E+000	7	...........	0
	240	24.1	-2.60071E-001	2.49596E-007	0.00000E+000	-2.59979E-001	0.00000E+000	7	...........	0
	243	24.4	-2.56968E-001	2.41594E-007	0.00000E+000	-2.56979E-001	0.00000E+000	7	...........	0
	246	24.7	-2.54065E-001	2.90941E-007	0.00000E+000	-2.53978E-001	0.00000E+000	7	...........	0
	249	25	-2.50962E-001	3.50624E-007	0.00000E+000	-2.50978E-001	0.00000E+000	7	...........	0
	252	25.3	-2.47959E-001	2.89274E-007	0.00000E+000	-2.47978E-001	0.00000E+000	7	...........	0
	255	25.6	-2.44956E-001	3.33286E-007	0.00000E+000	-2.44978E-001	0.00000E+000	7	...........	0
	258	25.9	-2.41983E-001	1.19486E-006	0.00000E+000	-2.41978E-001	0.00000E+000	7	...........	0
	261	26.2	-2.39000E-001	1.07182E-006	0.00000E+000	-2.38978E-001	0.00000E+000	7	...........	0
	264	26.5	-2.36017E-001	1.03748E-006	0.00000E+000	-2.35978E-001	0.00000E+000	7	...........	0
	267	26.8	-2.32984E-001	9.95801E-007	0.00000E+000	-2.32978E-001	0.00000E+000	7	...........	0
	270	27.1	-2.30011E-001	9.63792E-007	0.00000E+000	-2.29977E-001	0.00000E+000	7	...........	0
	273	27.4	-2.26938E-001	9.75795E-007	0.00000E+000	-2.26977E-001	0.00000E+000	7	...........	0
	276	27.7	-2.23975E-001	9.70794E-007	0.00000E+000	-2.23977E-001	0.00000E+000	7	...........	0
	279	28	-2.20972E-001	9.43453E-007	0.00000E+000	-2.20977E-001	0.00000E+000	7	...........	0
	282	28.3	-2.17989E-001	9.15446E-007	0.00000E+000	-2.17977E-001	0.00000E+000	7	...........	0
	285	28.6	-2.14976E-001	9.45120E-007	0.00000E+000	-2.14977E-001	0.00000E+000	7	...........	0
	288	28.9	-2.12013E-001	9.32784E-007	0.00000E+000	-2.11977E-001	0.00000E+000	7	...........	0
	291	29.2	-2.09010E-001	8.63431E-007	0.00000E+000	-2.08977E-001	0.00000E+000	7	...........	0
	294	29.5	-2.05977E-001	9.33117E-007	0.00000E+000	-2.05976E-001	0.00000E+000	7	...........	0
	297	29.8	-2.02994E-001	8.21420E-007	0.00000E+000	-2.02976E-001	0.00000E+000	7	...........	0
	300	30.1	-1.99971E-001	8.03748E-007	0.00000E+000	-1.99976E-001	0.00000E+000	7	...........	0
	303	30.4	-1.97029E-001	4.65989E-007	0.00000E+000	-1.96976E-001	0.00000E+000	7	...........	0
	306	30.7	-1.93965E-001	2.05917E-007	0.00000E+000	-1.93976E-001	0.00000E+000	7	...........	0
	309	31	-1.90972E-001	2.69935E-007	0.00000E+000	-1.90976E-001	0.00000E+000	7	...........	0
	312	31.3	-1.87969E-001	1.63239E-007	0.00000E+000	-1.87976E-001	0.00000E+000	7	...........	0
	315	31.6	-1.84967E-001	1.99916E-007	0.00000E+000	-1.84976E-001	0.00000E+000	7	...........	0
	318	31.9	-1.82004E-001	1.03556E-007	0.00000E+000	-1.81975E-001	0.00000E+000	7	...........	0
	321	32.2	-1.78991E-001	1.02556E-007	0.00000E+000	-1.78975E-001	0.00000E+000	7	...........	0
	324	32.5	-1.75968E-001	2.03250E-007	0.00000E+000	-1.75975E-001	0.00000E+000	7	...........	0
	327	32.8	-1.72985E-001	7.95492E-008	0.00000E+000	-1.72975E-001	0.00000E+000	7	...........	0
	330	33.1	-1.69962E-001	5.28753E-008	0.00000E+000	-1.69975E-001	0.00000E+000	7	...........	0
	333	33.4	-1.67029E-001	1.03222E-007	0.00000E+000	-1.67025E-001	0.00000E+000	7	...........	0
	336	33.7	-1.64016E-001	1.42567E-007	0.00000E+000	-1.64025E-001	0.00000E+000	7	...........	0
	339	34	-1.61013E-001	1.89246E-007	0.00000E+000	-1.61025E-001	0.00000E+000	7	...........	0
	342	34.3	-1.58010E-001	1.88913E-007	0.00000E+000	-1.58025E-001	0.00000E+000	7	...........	0
	345	34.6	-1.54977E-001	2.32925E-007	0.00000E+000	-1.55024E-001	0.00000E+000	7	...........	0
	348	34.9	-1.52024E-001	1.83911E-007	0.00000E+000	-1.52024E-001	0.00000E+000	7	...........	0
	351	35.2	-1.49061E-001	2.19588E-007	0.00000E+000	-1.49024E-001	0.00000E+000	7	...........	0
	354	35.5	-1.46018E-001	2.52263E-007	0.00000E+000	-1.46024E-001	0.00000E+000	7	...........	0
	357	35.8	-1.43055E-001	1.23720E-006	0.00000E+000	-1.43024E-001	0.00000E+000	7	...........	0
	360	36.1	-1.40052E-001	1.25421E-006	0.00000E+000	-1.40024E-001	0.00000E+000	7	...........	0
	363	36.4	-1.37059E-001	1.14284E-006	0.00000E+000	-1.37024E-001	0.00000E+000	7	...........	0
	366	36.7	-1.34086E-001	1.06382E-006	0.00000E+000	-1.34024E-001	0.00000E+000	7	...........	0
	369	37	-1.31063E-001	1.12284E-006	0.00000E+000	-1.31023E-001	0.00000E+000	7	...........	0
	372	37.3	-1.28040E-001	1.10216E-006	0.00000E+000	-1.28023E-001	0.00000E+000	7	...........	0
	375	37.6	-1.25037E-001	1.09149E-006	0.00000E+000	-1.25023E-001	0.00000E+000	7	...........	0
	378	37.9	-1.22054E-001	1.12450E-006	0.00000E+000	-1.22023E-001	0.00000E+000	7	...........	0
	381	38.2	-1.19051E-001	1.09349E-006	0.00000E+000	-1.19023E-001	0.00000E+000	7	...........	0
	384	38.5	-1.16028E-001	1.15418E-006	0.00000E+000	-1.16023E-001	0.00000E+000	7	...........	0
	387	38.8	-1.12985E-001	1.10316E-006	0.00000E+000	-1.13023E-001	0.00000E+000	7	...........	0
	390	39.1	-1.10072E-001	1.05348E-006	0.00000E+000	-1.10023E-001	0.00000E+000	7	...........	0
	393	39.4	-1.07089E-001	1.04715E-006	0.00000E+000	-1.07022E-001	0.00000E+000	7	...........	0
	396	39.7	-1.04046E-001	9.91466E-007	0.00000E+000	-1.04022E-001	0.00000E+000	7	...........	0
	399	40	-1.01093E-001	8.79102E-007	0.00000E+000	-1.01022E-001	0.00000E+000	7	...........	0
	402	40.3	-9.80200E-002	8.52095E-007	0.00000E+000	-9.80221E-002	0.00000E+000	7	...........	0
	405	40.6	-9.51070E-002	1.94247E-007	0.00000E+000	-9.50219E-002	0.00000E+000	7	...........	0
	408	40.9	-9.20340E-002	6.78794E-008	0.00000E+000	-9.20218E-002	0.00000E+000	7	...........	0
	411	41.2	-8.90410E-002	-1.01421E-008	0.00000E+000	-8.90217E-002	0.00000E+000	7	...........	0
	414	41.5	-8.60280E-002	-4.11506E-008	0.00000E+000	-8.60216E-002	0.00000E+000	7	...........	0
	417	41.8	-8.30250E-002	-3.14014E-009	0.00000E+000	-8.30214E-002	0.00000E+000	7	...........	0
	420	42.1	-8.00521E-002	1.11971E-008	0.00000E+000	-8.00213E-002	0.00000E+000	7	...........	0
	423	42.4	-7.69790E-002	4.72070E-008	0.00000E+000	-7.70212E-002	0.00000E+000	7	...........	0
	426	42.7	-7.40561E-002	8.98854E-008	0.00000E+000	-7.40211E-002	0.00000E+000	7	...........	0
	429	43	-7.10631E-002	1.38232E-007	0.00000E+000	-7.10210E-002	0.00000E+000	7	...........	0
	432	43.3	-6.80401E-002	2.00916E-007	0.00000E+000	-6.80208E-002	0.00000E+000	7	...........	0
	435	43.6	-6.50671E-002	1.49568E-007	0.00000E+000	-6.50207E-002	0.00000E+000	7	...........	0
	438	43.9	-6.20441E-002	1.91580E-007	0.00000E+000	-6.20206E-002	0.00000E+000	7	...........	0
	441	44.2	-5.90712E-002	9.28862E-008	0.00000E+000	-5.90205E-002	0.00000E+000	7	...........	0
	444	44.5	-5.60382E-002	1.02556E-007	0.00000E+000	-5.60203E-002	0.00000E+000	7	...........	0
	447	44.8	-5.30952E-002	-4.48183E-008	0.00000E+000	-5.30202E-002	0.00000E+000	7	...........	0
	450	45.1	-5.00522E-002	-1.35176E-007	0.00000E+000	-5.00201E-002	0.00000E+000	7	...........	0
	453	45.4	-4.70492E-002	-4.71522E-008	0.00000E+000	-4.70200E-002	0.00000E+000	7	...........	0
	456	45.7	-4.40362E-002	4.86206E-009	0.00000E+000	-4.40199E-002	0.00000E+000	7	...........	0
	459	46	-4.10432E-002	1.06482E-006	0.00000E+000	-4.10197E-002	0.00000E+000	7	...........	0
	462	46.3	-3.80903E-002	1.04381E-006	0.00000E+000	-3.80196E-002	0.00000E+000	7	...........	0
	465	46.6	-3.50473E-002	9.83798E-007	0.00000E+000	-3.50195E-002	0.00000E+000	7	...........	0
	468	46.9	-3.20343E-002	1.01481E-006	0.00000E+000	-3.20194E-002	0.00000E+000	7	...........	0
	471	47.2	-2.90613E-002	9.64792E-007	0.00000E+000	-2.90192E-002	0.00000E+000	7	...........	0
	474	47.5	-2.60783E-002	8.70767E-007	0.00000E+000	-2.60191E-002	0.00000E+000	7	...........	0
	477	47.8	-2.30621E-002	7.29394E-007	0.00000E+000	-2.30190E-002	0.00000E+000	7	...........	0
	480	48.1	-2.00361E-002	6.03360E-007	0.00000E+000	-2.00189E-002	0.00000E+000	7	...........	0
	483	48.4	-1.70401E-002	6.88050E-007	0.00000E+000	-1.70187E-002	0.00000E+000	7	...........	0
	486	48.7	-1.39911E-002	7.89078E-007	0.00000E+000	-1.40186E-002	0.00000E+000	7	...........	0
	489	49	-1.10141E-002	9.51789E-007	0.00000E+000	-1.10185E-002	0.00000E+000	7	...........	0
	492	49.3	-8.00512E-003	1.04915E-006	0.00000E+000	-8.01838E-003	0.00000E+000	7	...........	0
	495	49.6	-5.03516E-003	1.13417E-006	0.00000E+000	-5.01826E-003	0.00000E+000	7	...........	0
	498	49.9	-2.05119E-003	1.24454E-006	0.00000E+000	-2.01814E-003	0.00000E+000	7	...........	0
	501	50.2	9.58807E-004	4.83994E-007	0.00000E+000	9.81987E-004	0.00000E+000	7	...........	0
	504	50.5	3.94778E-003	3.56292E-007	0.00000E+000	3.98211E-003	0.00000E+000	7	...........	0
	507	50.8	6.89972E-003	2.56598E-007	0.00000E+000	6.98223E-003	0.00000E+000	7	...........	0
	510	51.1	9.92974E-003	1.35231E-007	0.00000E+000	9.98235E-003	0.00000E+000	7	...........	0
	513	51.4	1.29297E-002	1.57571E-007	0.00000E+000	1.29825E-002	0.00000E+000	7	...........	0
	516	51.7	1.59287E-002	1.28563E-007	0.00000E+000	1.59826E-002	0.00000E+000	7	...........	0
	519	52	1.89657E-002	1.49902E-007	0.00000E+000	1.89827E-002	0.00000E+000	7	...........	0
	522	52.3	2.19667E-002	1.73242E-007	0.00000E+000	2.19828E-002	0.00000E+000	7	...........	0
	525	52.6	2.48976E-002	1.13225E-007	0.00000E+000	2.49830E-002	0.00000E+000	7	...........	0
	528	52.9	2.79454E-002	1.63906E-007	0.00000E+000	2.79831E-002	0.00000E+000	7	...........	0
	531	53.2	3.09384E-002	8.62177E-008	0.00000E+000	3.09832E-002	0.00000E+000	7	...........	0
	534	53.5	3.39314E-002	9.48868E-008	0.00000E+000	3.39833E-002	0.00000E+000	7	...........	0
	537	53.8	3.69744E-002	9.42199E-008	0.00000E+000	3.69835E-002	0.00000E+000	7	...........	0
	540	54.1	3.99574E-002	1.70908E-007	0.00000E+000	3.99836E-002	0.00000E+000	7	...........	0
	543	54.4	4.29504E-002	2.72602E-007	0.00000E+000	4.29837E-002	0.00000E+000	7	...........	0
	546	54.7	4.59634E-002	2.81938E-007	0.00000E+000	4.59838E-002	0.00000E+000	7	...........	0
	549	55	4.89363E-002	3.29618E-007	0.00000E+000	4.89840E-002	0.00000E+000	7	...........	0
	552	55.3	5.19593E-002	4.12307E-007	0.00000E+000	5.19841E-002	0.00000E+000	7	...........	0
	555	55.6	5.49223E-002	1.76801E-006	0.00000E+000	5.49842E-002	0.00000E+000	7	...........	0
	558	55.9	5.79353E-002	1.75168E-006	0.00000E+000	5.79843E-002	0.00000E+000	7	...........	0
	561	56.2	6.09483E-002	1.63164E-006	0.00000E+000	6.09844E-002	0.00000E+000	7	...........	0
	564	56.5	6.39112E-002	1.59463E-006	0.00000E+000	6.39846E-002	0.00000E+000	7	...........	0
	567	56.8	6.69543E-002	1.49027E-006	0.00000E+000	6.69847E-002	0.00000E+000	7	...........	0
	570	57.1	6.99372E-002	1.53128E-006	0.00000E+000	6.99848E-002	0.00000E+000	7	...........	0
	573	57.4	7.29402E-002	1.44793E-006	0.00000E+000	7.29849E-002	0.00000E+000	7	...........	0
	576	57.7	7.59632E-002	1.57929E-006	0.00000E+000	7.59851E-002	0.00000E+000	7	...........	0
	579	58	7.89662E-002	1.60030E-006	0.00000E+000	7.89852E-002	0.00000E+000	7	...........	0
	582	58.3	8.19492E-002	1.71533E-006	0.00000E+000	8.19853E-002	0.00000E+000	7	...........	0
	585	58.6	8.49522E-002	1.80269E-006	0.00000E+000	8.49854E-002	0.00000E+000	7	...........	0
	588	58.9	8.79752E-002	1.85870E-006	0.00000E+000	8.79855E-002	0.00000E+000	7	...........	0
	591	59.2	9.09481E-002	1.79902E-006	0.00000E+000	9.09857E-002	0.00000E+000	7	...........	0
	594	59.5	9.39311E-002	1.70566E-006	0.00000E+000	9.39858E-002	0.00000E+000	7	...........	0
	597	59.8	9.69741E-002	1.71300E-006	0.00000E+000	9.69859E-002	0.00000E+000	7	...........	0
	600	60.1	9.99471E-002	1.74567E-006	0.00000E+000	9.99860E-002	0.00000E+000	7	...........	0
	603	60.4	1.02950E-001	5.81020E-007	0.00000E+000	1.02986E-001	0.00000E+000	7	...........	0
	606	60.7	1.05983E-001	7.54401E-007	0.00000E+000	1.05986E-001	0.00000E+000	7	...........	0
	609	61	1.08936E-001	7.60736E-007	0.00000E+000	1.08986E-001	0.00000E+000	7	...........	0
	612	61.3	1.11999E-001	7.73407E-007	0.00000E+000	1.11987E-001	0.00000E+000	7	...........	0
	615	61.6	1.14922E-001	6.96052E-007	0.00000E+000	1.14987E-001	0.00000E+000	7	...........	0
	618	61.9	1.17955E-001	6.25366E-007	0.00000E+000	1.17987E-001	0.00000E+000	7	...........	0
	621	62.2	1.20908E-001	5.38675E-007	0.00000E+000	1.20987E-001	0.00000E+000	7	...........	0
	624	62.5	1.23941E-001	4.14641E-007	0.00000E+000	1.23987E-001	0.00000E+000	7	...........	0
	627	62.8	1.26934E-001	3.70963E-007	0.00000E+000	1.26987E-001	0.00000E+000	7	...........	0
	630	63.1	1.29897E-001	3.16614E-007	0.00000E+000	1.29987E-001	0.00000E+000	7	...........	0
	633	63.4	1.32960E-001	3.09946E-007	0.00000E+000	1.32987E-001	0.00000E+000	7	...........	0
	636	63.7	1.35983E-001	4.14308E-007	0.00000E+000	1.35988E-001	0.00000E+000	7	...........	0
	639	64	1.38946E-001	3.81299E-007	0.00000E+000	1.38988E-001	0.00000E+000	7	...........	0
	642	64.3	1.41969E-001	4.16642E-007	0.00000E+000	1.41988E-001	0.00000E+000	7	...........	0
	645	64.6	1.44912E-001	4.77992E-007	0.00000E+000	1.44988E-001	0.00000E+000	7	...........	0
	648	64.9	1.47945E-001	4.22977E-007	0.00000E+000	1.47988E-001	0.00000E+000	7	...........	0
	651	65.2	1.50958E-001	4.93663E-007	0.00000E+000	1.50988E-001	0.00000E+000	7	...........	0
	654	65.5	1.53921E-001	4.83660E-007	0.00000E+000	1.53988E-001	0.00000E+000	7	...........	0
	657	65.8	1.56894E-001	2.10244E-006	0.00000E+000	1.56988E-001	0.00000E+000	7	...........	0
	660	66.1	1.59937E-001	2.29649E-006	0.00000E+000	1.59988E-001	0.00000E+000	7	...........	0
	663	66.4	1.62900E-001	2.22947E-006	0.00000E+000	1.62989E-001	0.00000E+000	7	...........	0
	666	66.7	1.65933E-001	2.13311E-006	0.00000E+000	1.65989E-001	0.00000E+000	7	...........	0
	669	67	1.68916E-001	2.05809E-006	0.00000E+000	1.68989E-001	0.00000E+000	7	...........	0
	672	67.3	1.71899E-001	2.06710E-006	0.00000E+000	1.71989E-001	0.00000E+000	7	...........	0
	675	67.6	1.74942E-001	1.94039E-006	0.00000E+000	1.74989E-001	0.00000E+000	7	...........	0
	678	67.9	1.77985E-001	1.96907E-006	0.00000E+000	1.77989E-001	0.00000E+000	7	...........	0
	681	68.2	1.80918E-001	1.89638E-006	0.00000E+000	1.80989E-001	0.00000E+000	7	...........	0
	684	68.5	1.83931E-001	1.97240E-006	0.00000E+000	1.83989E-001	0.00000E+000	7	...........	0
	687	68.8	1.86904E-001	1.99241E-006	0.00000E+000	1.86990E-001	0.00000E+000	7	...........	0
	690	69.1	1.89947E-001	2.06109E-006	0.00000E+000	1.89990E-001	0.00000E+000	7	...........	0
	693	69.4	1.92940E-001	2.04042E-006	0.00000E+000	1.92990E-001	0.00000E+000	7	...........	0
	696	69.7	1.95943E-001	2.11578E-006	0.00000E+000	1.95990E-001	0.00000E+000	7	...........	0
	699	70	1.98856E-001	2.23481E-006	0.00000E+000	1.98990E-001	0.00000E+000	7	...........	0
	702	70.3	2.01919E-001	1.79769E-006	0.00000E+000	2.01990E-001	0.00000E+000	7	...........	0
	705	70.6	2.04902E-001	4.63321E-007	0.00000E+000	2.04990E-001	0.00000E+000	7	...........	0
	708	70.9	2.07885E-001	3.92635E-007	0.00000E+000	2.07990E-001	0.00000E+000	7	...........	0
	711	71.2	2.10888E-001	2.19921E-007	0.00000E+000	2.10991E-001	0.00000E+000	7	...........	0
	714	71.5	2.13911E-001	2.00916E-007	0.00000E+000	2.13991E-001	0.00000E+000	7	...........	0
	717	71.8	2.16964E-001	1.04223E-007	0.00000E+000	2.16991E-001	0.00000E+000	7	...........	0
	720	72.1	2.19977E-001	2.13919E-007	0.00000E+000	2.19991E-001	0.00000E+000	7	...........	0
	723	72.4	2.22919E-001	2.83939E-007	0.00000E+000	2.22991E-001	0.00000E+000	7	...........	0
	726	72.7	2.25963E-001	2.27923E-007	0.00000E+000	2.25991E-001	0.00000E+000	7	...........	0
	729	73	2.28915E-001	2.00916E-007	0.00000E+000	2.28991E-001	0.00000E+000	7	...........	0
	732	73.3	2.31928E-001	2.88273E-007	0.00000E+000	2.31991E-001	0.00000E+000	7	...........	0
	735	73.6	2.34921E-001	2.56598E-007	0.00000E+000	2.34992E-001	0.00000E+000	7	...........	0
	738	73.9	2.37914E-001	2.10919E-007	0.00000E+000	2.37992E-001	0.00000E+000	7	...........	0
	741	74.2	2.40877E-001	3.98717E-008	0.00000E+000	2.40992E-001	0.00000E+000	7	...........	0
	744	74.5	2.43900E-001	-3.14813E-008	0.00000E+000	2.43992E-001	0.00000E+000	7	...........	0
	747	74.8	2.46873E-001	1.91993E-008	0.00000E+000	2.46992E-001	0.00000E+000	7	...........	0
	750	75.1	2.49946E-001	7.98827E-008	0.00000E+000	2.49992E-001	0.00000E+000	7	...........	0
	753	75.4	2.52919E-001	2.50355E-006	0.00000E+000	2.52992E-001	0.00000E+000	7	...........	0
	756	75.7	2.55892E-001	2.61791E-006	0.00000E+000	2.55992E-001	0.00000E+000	7	...........	0
	759	76	2.58895E-001	2.60258E-006	0.00000E+000	2.58993E-001	0.00000E+000	7	...........	0
	762	76.3	2.61898E-001	2.77062E-006	0.00000E+000	2.61993E-001	0.00000E+000	7	...........	0
	765	76.6	2.64881E-001	2.76996E-006	0.00000E+000	2.64993E-001	0.00000E+000	7	...........	0
	768	76.9	2.68155E-001	2.80997E-006	0.00000E+000	2.67993E-001	0.00000E+000	7	...........	0
	771	77.2	2.71058E-001	2.75695E-006	0.00000E+000	2.70993E-001	0.00000E+000	7	...........	0
	774	77.5	2.74061E-001	2.74061E-006	0.00000E+000	2.73993E-001	0.00000E+000	7	...........	0
	777	77.8	2.76964E-001	2.73528E-006	0.00000E+000	2.76993E-001	0.00000E+000	7	...........	0
	780	78.1	2.79967E-001	2.70427E-006	0.00000E+000	2.79993E-001	0.00000E+000	7	...........	0
	783	78.4	2.83170E-001	2.67259E-006	0.00000E+000	2.82993E-001	0.00000E+000	7	...........	0
	786	78.7	2.86073E-001	2.61024E-006	0.00000E+000	2.85994E-001	0.00000E+000	7	...........	0
	789	79	2.89076E-001	2.56490E-006	0.00000E+000	2.88994E-001	0.00000E+000	7	...........	0
	792	79.3	2.92079E-001	2.66726E-006	0.00000E+000	2.91994E-001	0.00000E+000	7	...........	0
	795	79.6	2.95082E-001	2.69327E-006	0.00000E+000	2.94994E-001	0.00000E+000	7	...........	0
	798	79.9	2.97985E-001	2.76529E-006	0.00000E+000	2.97994E-001	0.00000E+000	7	...........	0
	801	80.2	3.01088E-001	2.76662E-006	0.00000E+000	3.00994E-001	0.00000E+000	7	...........	0
	804	80.5	3.04091E-001	2.63600E-007	0.00000E+000	3.03994E-001	0.00000E+000	7	...........	0
	807	80.8	3.07094E-001	3.76631E-007	0.00000E+000	3.06994E-001	0.00000E+000	7	...........	0
	810	81.1	3.10197E-001	3.88968E-007	0.00000E+000	3.09995E-001	0.00000E+000	7	...........	0
	813	81.4	3.13100E-001	3.46289E-007	0.00000E+000	3.12995E-001	0.00000E+000	7	...........	0
	816	81.7	3.15903E-001	3.73297E-007	0.00000E+000	3.15995E-001	0.00000E+000	7	...........	0
	819	82	3.19106E-001	3.50290E-007	0.00000E+000	3.18995E-001	0.00000E+000	7	...........	0
	822	82.3	3.22109E-001	4.54986E-007	0.00000E+000	3.21995E-001	0.00000E+000	7	...........	0
	825	82.6	3.25112E-001	4.75325E-007	0.00000E+000	3.24995E-001	0.00000E+000	7	...........	0
	828	82.9	3.28015E-001	5.04333E-007	0.00000E+000	3.27995E-001	0.00000E+000	7	...........	0
	831	83.2	3.31018E-001	6.03360E-007	0.00000E+000	3.30995E-001	0.00000E+000	7	...........	0
	834	83.5	3.34021E-001	5.94691E-007	0.00000E+000	3.33996E-001	0.00000E+000	7	...........	0
	837	83.8	3.37124E-001	6.75713E-007	0.00000E+000	3.36996E-001	0.00000E+000	7	...........	0
	840	84.1	3.40127E-001	6.95719E-007	0.00000E+000	3.39996E-001	0.00000E+000	7	...........	0
	843	84.4	3.43130E-001	7.02720E-007	0.00000E+000	3.42996E-001	0.00000E+000	7	...........	0
	846	84.7	3.46133E-001	7.46733E-007	0.00000E+000	3.45996E-001	0.00000E+000	7	...........	0
	849	85	3.49136E-001	6.62376E-007	0.00000E+000	3.48996E-001	0.00000E+000	7	...........	0
	852	85.3	3.52039E-001	1.21219E-006	0.00000E+000	3.51996E-001	0.00000E+000	7	...........	0
	855	85.6	3.55042E-001	3.61852E-006	0.00000E+000	3.54996E-001	0.00000E+000	7	...........	0
	858	85.9	3.58145E-001	3.57484E-006	0.00000E+000	3.57997E-001	0.00000E+000	7	...........	0
	861	86.2	3.61148E-001	3.45648E-006	0.00000E+000	3.60997E-001	0.00000E+000	7	...........	0
	864	86.5	3.64050E-001	3.46381E-006	0.00000E+000	3.63997E-001	0.00000E+000	7	...........	0
	867	86.8	3.67154E-001	3.42714E-006	0.00000E+000	3.66997E-001	0.00000E+000	7	...........	0
	870	87.1	3.70056E-001	3.52983E-006	0.00000E+000	3.69997E-001	0.00000E+000	7	...........	0
	873	87.4	3.73059E-001	3.47248E-006	0.00000E+000	3.72997E-001	0.00000E+000	7	...........	0
	876	87.7	3.75962E-001	3.48215E-006	0.00000E+000	3.75997E-001	0.00000E+000	7	...........	0
	879	88	3.79065E-001	3.57118E-006	0.00000E+000	3.78997E-001	0.00000E+000	7	...........	0
	882	88.3	3.82068E-001	3.65820E-006	0.00000E+000	3.81998E-001	0.00000E+000	7	...........	0
	885	88.6	3.85171E-001	3.56617E-006	0.00000E+000	3.84998E-001	0.00000E+000	7	...........	0
	888	88.9	3.88074E-001	3.59918E-006	0.00000E+000	3.87998E-001	0.00000E+000	7	...........	0
	891	89.2	3.91177E-001	3.74656E-006	0.00000E+000	3.90998E-001	0.00000E+000	7	...........	0
	894	89.5	3.94180E-001	3.77590E-006	0.00000E+000	3.93998E-001	0.00000E+000	7	...........	0
	897	89.8	3.97183E-001	3.79724E-006	0.00000E+000	3.96998E-001	0.00000E+000	7	...........	0
	900	90.1	4.00086E-001	3.82158E-006	0.00000E+000	3.99998E-001	0.00000E+000	7	...........	0
	903	90.4	4.03089E-001	9.23781E-007	0.00000E+000	4.02998E-001	0.00000E+000	7	...........	0
	906	90.7	4.06092E-001	7.39731E-007	0.00000E+000	4.05999E-001	0.00000E+000	7	...........	0
	909	91	4.09095E-001	7.60070E-007	0.00000E+000	4.08999E-001	0.00000E+000	7	...........	0
	912	91.3	4.12098E-001	7.25393E-007	0.00000E+000	4.11999E-001	0.00000E+000	7	...........	0
	915	91.6	4.15101E-001	7.87744E-007	0.00000E+000	4.14999E-001	0.00000E+000	7	...........	0
	918	91.9	4.18004E-001	7.35063E-007	0.00000E+000	4.17999E-001	0.00000E+000	7	...........	0
	921	92.2	4.21107E-001	7.38064E-007	0.00000E+000	4.20999E-001	0.00000E+000	7	...........	0
	924	92.5	4.24110E-001	7.70739E-007	0.00000E+000	4.23999E-001	0.00000E+000	7	...........	0
	927	92.8	4.27113E-001	7.48733E-007	0.00000E+000	4.26999E-001	0.00000E+000	7	...........	0
	930	93.1	4.30116E-001	8.19419E-007	0.00000E+000	4.30000E-001	0.00000E+000	7	...........	0
	933	93.4	4.33119E-001	8.56429E-007	0.00000E+000	4.33000E-001	0.00000E+000	7	...........	0
	936	93.7	4.36222E-001	8.76435E-007	0.00000E+000	4.36000E-001	0.00000E+000	7	...........	0
	939	94	4.39025E-001	9.11444E-007	0.00000E+000	4.39000E-001	0.00000E+000	7	...........	0
	942	94.3	4.42128E-001	1.02514E-006	0.00000E+000	4.42000E-001	0.00000E+000	7	...........	0
	945	94.6	4.45131E-001	1.02814E-006	0.00000E+000	4.45000E-001	0.00000E+000	7	...........	0
	948	94.9	4.48134E-001	1.08349E-006	0.00000E+000	4.48000E-001	0.00000E+000	7	...........	0
	951	95.2	4.51237E-001	1.11450E-006	0.00000E+000	4.51000E-001	0.00000E+000	7	...........	0
	954	95.5	4.54240E-001	4.65247E-006	0.00000E+000	4.54001E-001	0.00000E+000	7	...........	0
	957	95.8	4.57143E-001	4.60879E-006	0.00000E+000	4.57001E-001	0.00000E+000	7	...........	0
	960	96.1	4.60046E-001	4.58479E-006	0.00000E+000	4.60001E-001	0.00000E+000	7	...........	0
	963	96.4	4.63149E-001	4.52644E-006	0.00000E+000	4.63001E-001	0.00000E+000	7	...........	0
	966	96.7	4.66152E-001	4.56612E-006	0.00000E+000	4.66001E-001	0.00000E+000	7	...........	0
	969	97	4.69055E-001	4.45642E-006	0.00000E+000	4.69001E-001	0.00000E+000	7	...........	0
	972	97.3	4.71958E-001	4.42574E-006	0.00000E+000	4.72001E-001	0.00000E+000	7	...........	0
	975	97.6	4.75061E-001	4.52310E-006	0.00000E+000	4.75001E-001	0.00000E+000	7	...........	0
	978	97.9	4.78164E-001	4.45809E-006	0.00000E+000	4.78001E-001	0.00000E+000	7	...........	0
	981	98.2	4.81167E-001	4.48743E-006	0.00000E+000	4.81002E-001	0.00000E+000	7	...........	0
	984	98.5	4.84070E-001	4.56445E-006	0.00000E+000	4.84002E-001	0.00000E+000	7	...........	0
	987	98.8	4.86973E-001	4.50910E-006	0.00000E+000	4.87002E-001	0.00000E+000	7	...........	0
	990	99.1	4.90076E-001	4.60679E-006	0.00000E+000	4.90002E-001	0.00000E+000	7	...........	0
	993	99.4	4.93179E-001	4.48276E-006	0.00000E+000	4.93002E-001	0.00000E+000	7	...........	0
	996	99.7	4.96182E-001	4.51543E-006	0.00000E+000	4.96002E-001	0.00000E+000	7	...........	0
	999	100	4.99085E-001	4.53411E-006	0.00000E+000	4.99002E-001	0.00000E+000	7	...........	0
	1002	100.3	5.02188E-001	4.58912E-006	0.00000E+000	5.02002E-001	0.00000E+000	7	...........	0
	1005	100.6	5.05091E-001	1.09183E-006	0.00000E+000	5.05003E-001	0.00000E+000	7	...........	0
	1008	100.9	5.08094E-001	1.11883E-006	0.00000E+000	5.08003E-001	0.00000E+000	7	...........	0
	1011	101.2	5.10997E-001	1.15484E-006	0.00000E+000	5.11003E-001	0.00000E+000	7	...........	0
	1014	101.5	5.14200E-001	1.18685E-006	0.00000E+000	5.14003E-001	0.00000E+000	7	...........	0
	1017	101.8	5.17203E-001	1.21419E-006	0.00000E+000	5.17003E-001	0.00000E+000	7	...........	0
	1020	102.1	5.20006E-001	1.19786E-006	0.00000E+000	5.20003E-001	0.00000E+000	7	...........	0
	1023	102.4	5.23209E-001	1.22987E-006	0.00000E+000	5.23003E-001	0.00000E+000	7	...........	0
	1026	102.7	5.26112E-001	1.23120E-006	0.00000E+000	5.26003E-001	0.00000E+000	7	...........	0
	1029	103	5.29115E-001	1.24720E-006	0.00000E+000	5.29004E-001	0.00000E+000	7	...........	0
	1032	103.3	5.32118E-001	1.32823E-006	0.00000E+000	5.32004E-001	0.00000E+000	7	...........	0
	1035	103.6	5.35121E-001	1.30422E-006	0.00000E+000	5.35004E-001	0.00000E+000	7	...........	0
	1038	103.9	5.38124E-001	1.35057E-006	0.00000E+000	5.38004E-001	0.00000E+000	7	...........	0
	1041	104.2	5.41227E-001	1.30155E-006	0.00000E+000	5.41004E-001	0.00000E+000	7	...........	0
	1044	104.5	5.44130E-001	1.35057E-006	0.00000E+000	5.44004E-001	0.00000E+000	7	...........	0
	1047	104.8	5.47133E-001	1.36157E-006	0.00000E+000	5.47004E-001	0.00000E+000	7	...........	0
	1050	105.1	5.50036E-001	1.37557E-006	0.00000E+000	5.50004E-001	0.00000E+000	7	...........	0
	1053	105.4	5.53239E-001	5.76078E-006	0.00000E+000	5.53005E-001	0.00000E+000	7	...........	0
	1056	105.7	5.56142E-001	5.72110E-006	0.00000E+000	5.56005E-001	0.00000E+000	7	...........	0
	1059	106	5.59145E-001	5.70509E-006	0.00000E+000	5.59005E-001	0.00000E+000	7	...........	0
	1062	106.3	5.62248E-001	5.90848E-006	0.00000E+000	5.62005E-001	0.00000E+000	7	...........	0
	1065	106.6	5.65051E-001	5.93416E-006	0.00000E+000	5.65005E-001	0.00000E+000	7	...........	0
	1068	106.9	5.68053E-001	5.97884E-006	0.00000E+000	5.68005E-001	0.00000E+000	7	...........	0
	1071	107.2	5.71157E-001	6.01418E-006	0.00000E+000	5.71005E-001	0.00000E+000	7	...........	0
	1074	107.5	5.74160E-001	6.15322E-006	0.00000E+000	5.74005E-001	0.00000E+000	7	...........	0
	1077	107.8	5.77163E-001	6.12621E-006	0.00000E+000	5.77006E-001	0.00000E+000	7	...........	0
	1080	108.1	5.80166E-001	6.21924E-006	0.00000E+000	5.80006E-001	0.00000E+000	7	...........	0
	1083	108.4	5.83169E-001	6.21290E-006	0.00000E+000	5.83006E-001	0.00000E+000	7	...........	0
	1086	108.7	5.86172E-001	6.35527E-006	0.00000E+000	5.86006E-001	0.00000E+000	7	...........	0
	1089	109	5.89175E-001	6.44730E-006	0.00000E+000	5.89006E-001	0.00000E+000	7	...........	0
	1092	109.3	5.92178E-001	6.51098E-006	0.00000E+000	5.92006E-001	0.00000E+000	7	...........	0
	1095	109.6	5.95080E-001	6.64302E-006	0.00000E+000	5.95006E-001	0.00000E+000	7	...........	0
	1098	109.9	5.98083E-001	6.75772E-006	0.00000E+000	5.98006E-001	0.00000E+000	7	...........	0
	1100	110.1	6.00085E-001	2.69393E-006	0.00000E+000	6.00006E-001	0.00000E+000	7	...........	0