File: LSV ZFO/ZFO_h300_chop_reator.DTA
EXPLAIN
TAG	LSV
TITLE	LABEL	Linear Sweep Voltammetry	Test &Identifier
DATE	LABEL	7/5/2024	Date
TIME	LABEL	17:50:23	Time
NOTES	NOTES	1	&Notes...

PSTAT	PSTAT	L3FNano	Potentiostat
VINIT	POTEN	-5.00000E-001	F	&Initial E (V)
VFINAL	POTEN	6.00000E-001	F	&Final E (V)
SCANRATE	QUANT	9.99998E+000	&Scan Rate (mV/s)
STEPSIZE	QUANT	1.00000E+000	St&ep Size (mV)
IMODE	SELECTOR	0	I/E Range &Mode
IRANGE	QUANT	1.00000E+001	&Max Current (mA)
AREA	QUANT	1.00000E+000	Electrode &Area (cm^2)
ELECTRODETYPE	SELECTOR	0	Electrode Type
STRIPPING	TOGGLE	F	Used for Stripping
POLARITY	TOGGLE	F	Signal Polarity
CONDIT	TWOPARAM	F	1.50000E+001	0.00000E+000	Conditionin&g	Time(s)	E(V)
DELAY	TWOPARAM	F	3.00000E+001	0.00000E+000	Init. De&lay	Time(s)	Stab.(mV/s)
EQDELAY	QUANT	5.00000E+000	Equil. &Time (s)
IRCOMP	SELECTOR	0	IRCom&p
PFCOR	QUANT	5.00000E+001	PF Corr. (ohm)
SAMPLINGMODE	SELECTOR	0	Sampling &Mode
EOC	QUANT	0	Open Circuit (V)
PSTATMODEL	IQUANT	48	Pstat Model
PSTATSECTION	LABEL	IFC1000-07082	Pstat Section
PSTATSERIALNO	LABEL	07082	Pstat Serial Number
CTRLMODE	IQUANT	1	Control Mode
IESTAB	IQUANT	2	I/E Stability
CASPEED	IQUANT	2	Control Amp Speed
CONVENTION	IQUANT	1	Current Convention
ICHRANGE	IQUANT	2	Ich Range
ICHRANGEMODE	TOGGLE	F	Ich Auto Range
ICHOFFSETENABLE	TOGGLE	F	Ich Offset Enable
ICHOFFSET	QUANT	0	Ich Offset (V)
ICHFILTER	IQUANT	3	Ich Filter
VCHRANGE	IQUANT	2	Vch Range
VCHRANGEMODE	TOGGLE	T	Vch Auto Range
VCHOFFSETENABLE	TOGGLE	F	Vch Offset Enable
VCHOFFSET	QUANT	0	Vch Offset (V)
VCHFILTER	IQUANT	3	Vch Filter
IERANGELOWERLIMIT	IQUANT	4	I/E Range Lower Limit
IERANGEMODE	TOGGLE	T	I/E AutoRange
IERANGE	IQUANT	11	I/E Range
ACHSELECT	IQUANT	4	Ach Select
CABLEID	IQUANT	14	Cable ID
DCCALDATE	LABEL	7/3/2024	DC Calibration Date
ACCALDATE	LABEL	7/3/2024	AC Calibration Date
FRAMEWORKVERSION	QUANT	6.24	Framework Version
INSTRUMENTVERSION	LABEL	3.28	Instrument Version
CURVE	TABLE	1101
	Pt	T	Vf	Im	Vu	Sig	Ach	IERange	Over	Cycle
	#	s	V vs. Ref.	A	V	V	V	#	bits	#
	0	0.1	-5.00010E-001	-1.46991E-005	0.00000E+000	-4.99988E-001	0.00000E+000	11	...........	0
	3	0.4	-4.97107E-001	-1.43957E-005	0.00000E+000	-4.96988E-001	0.00000E+000	8	...........	0
	6	0.7	-4.94004E-001	-1.36423E-005	0.00000E+000	-4.93988E-001	0.00000E+000	8	...........	0
	9	1	-4.91101E-001	-1.27223E-005	0.00000E+000	-4.90988E-001	0.00000E+000	8	...........	0
	12	1.3	-4.88098E-001	-1.20889E-005	0.00000E+000	-4.87988E-001	0.00000E+000	8	...........	0
	15	1.6	-4.85095E-001	-1.14755E-005	0.00000E+000	-4.84988E-001	0.00000E+000	8	...........	0
	18	1.9	-4.82092E-001	-1.07621E-005	0.00000E+000	-4.81988E-001	0.00000E+000	8	...........	0
	21	2.2	-4.79089E-001	-1.00288E-005	0.00000E+000	-4.78988E-001	0.00000E+000	8	...........	0
	24	2.5	-4.75986E-001	-9.46872E-006	0.00000E+000	-4.75987E-001	0.00000E+000	8	...........	0
	27	2.8	-4.73083E-001	-8.82201E-006	0.00000E+000	-4.72987E-001	0.00000E+000	8	...........	0
	30	3.1	-4.70080E-001	-8.29530E-006	0.00000E+000	-4.69987E-001	0.00000E+000	8	...........	0
	33	3.4	-4.67077E-001	-8.04002E-006	0.00000E+000	-4.66987E-001	0.00000E+000	7	...........	0
	36	3.7	-4.64074E-001	-7.69759E-006	0.00000E+000	-4.63987E-001	0.00000E+000	7	...........	0
	39	4	-4.61071E-001	-7.12643E-006	0.00000E+000	-4.60987E-001	0.00000E+000	7	...........	0
	42	4.3	-4.57968E-001	-6.66697E-006	0.00000E+000	-4.57987E-001	0.00000E+000	7	...........	0
	45	4.6	-4.55065E-001	-6.20351E-006	0.00000E+000	-4.54987E-001	0.00000E+000	7	...........	0
	48	4.9	-4.52062E-001	-5.78506E-006	0.00000E+000	-4.51987E-001	0.00000E+000	7	...........	0
	51	5.2	-4.48959E-001	-5.00085E-006	0.00000E+000	-4.48986E-001	0.00000E+000	7	...........	0
	54	5.5	-4.45956E-001	-4.83347E-006	0.00000E+000	-4.45986E-001	0.00000E+000	7	...........	0
	57	5.8	-4.43153E-001	-4.64075E-006	0.00000E+000	-4.42986E-001	0.00000E+000	7	...........	0
	60	6.1	-4.40050E-001	-4.32933E-006	0.00000E+000	-4.39986E-001	0.00000E+000	7	...........	0
	63	6.4	-4.37047E-001	-3.96523E-006	0.00000E+000	-4.36986E-001	0.00000E+000	7	...........	0
	66	6.7	-4.33844E-001	-3.63114E-006	0.00000E+000	-4.33986E-001	0.00000E+000	7	...........	0
	69	7	-4.30941E-001	-3.23336E-006	0.00000E+000	-4.30986E-001	0.00000E+000	7	...........	0
	72	7.3	-4.28038E-001	-2.86093E-006	0.00000E+000	-4.27986E-001	0.00000E+000	7	...........	0
	75	7.6	-4.25035E-001	-2.56551E-006	0.00000E+000	-4.24985E-001	0.00000E+000	7	...........	0
	78	7.9	-4.21932E-001	-2.37146E-006	0.00000E+000	-4.21985E-001	0.00000E+000	7	...........	0
	81	8.2	-4.18929E-001	-2.28177E-006	0.00000E+000	-4.18985E-001	0.00000E+000	7	...........	0
	84	8.5	-4.15926E-001	-2.13139E-006	0.00000E+000	-4.15985E-001	0.00000E+000	7	...........	0
	87	8.8	-4.13123E-001	-1.97968E-006	0.00000E+000	-4.12985E-001	0.00000E+000	7	...........	0
	90	9.1	-4.10020E-001	-1.80564E-006	0.00000E+000	-4.09985E-001	0.00000E+000	7	...........	0
	93	9.4	-4.07017E-001	-1.64126E-006	0.00000E+000	-4.06985E-001	0.00000E+000	7	...........	0
	96	9.7	-4.04014E-001	-1.41053E-006	0.00000E+000	-4.03985E-001	0.00000E+000	7	...........	0
	99	10	-4.01011E-001	-1.87966E-006	0.00000E+000	-4.00984E-001	0.00000E+000	7	...........	0
	102	10.3	-3.98008E-001	-1.50789E-006	0.00000E+000	-3.97984E-001	0.00000E+000	7	...........	0
	105	10.6	-3.94905E-001	-1.30750E-006	0.00000E+000	-3.94984E-001	0.00000E+000	7	...........	0
	108	10.9	-3.92002E-001	-1.10611E-006	0.00000E+000	-3.91984E-001	0.00000E+000	7	...........	0
	111	11.2	-3.88999E-001	-9.46066E-007	0.00000E+000	-3.88984E-001	0.00000E+000	7	...........	0
	114	11.5	-3.85996E-001	-7.97692E-007	0.00000E+000	-3.85984E-001	0.00000E+000	7	...........	0
	117	11.8	-3.82993E-001	-6.63655E-007	0.00000E+000	-3.82984E-001	0.00000E+000	7	...........	0
	120	12.1	-3.79990E-001	-4.91941E-007	0.00000E+000	-3.79984E-001	0.00000E+000	7	...........	0
	123	12.4	-3.76987E-001	-4.01583E-007	0.00000E+000	-3.76983E-001	0.00000E+000	7	...........	0
	126	12.7	-3.74084E-001	-3.03556E-007	0.00000E+000	-3.73983E-001	0.00000E+000	7	...........	0
	129	13	-3.71081E-001	-2.37538E-007	0.00000E+000	-3.70983E-001	0.00000E+000	7	...........	0
	132	13.3	-3.67978E-001	-2.48874E-007	0.00000E+000	-3.67983E-001	0.00000E+000	7	...........	0
	135	13.6	-3.65075E-001	-1.81856E-007	0.00000E+000	-3.64983E-001	0.00000E+000	7	...........	0
	138	13.9	-3.62072E-001	-1.29842E-007	0.00000E+000	-3.61983E-001	0.00000E+000	7	...........	0
	141	14.2	-3.59169E-001	-6.71577E-008	0.00000E+000	-3.58983E-001	0.00000E+000	7	...........	0
	144	14.5	-3.56066E-001	-5.04865E-008	0.00000E+000	-3.55983E-001	0.00000E+000	7	...........	0
	147	14.8	-3.52963E-001	-1.51434E-008	0.00000E+000	-3.52982E-001	0.00000E+000	7	...........	0
	150	15.1	-3.50060E-001	1.98374E-006	0.00000E+000	-3.49982E-001	0.00000E+000	7	...........	0
	153	15.4	-3.46957E-001	1.13117E-006	0.00000E+000	-3.46982E-001	0.00000E+000	7	...........	0
	156	15.7	-3.43954E-001	1.02781E-006	0.00000E+000	-3.43982E-001	0.00000E+000	7	...........	0
	159	16	-3.41051E-001	8.80103E-007	0.00000E+000	-3.40982E-001	0.00000E+000	7	...........	0
	162	16.3	-3.38048E-001	8.62431E-007	0.00000E+000	-3.37982E-001	0.00000E+000	7	...........	0
	165	16.6	-3.34945E-001	9.12111E-007	0.00000E+000	-3.34982E-001	0.00000E+000	7	...........	0
	168	16.9	-3.32042E-001	7.74740E-007	0.00000E+000	-3.31982E-001	0.00000E+000	7	...........	0
	171	17.2	-3.29039E-001	8.05415E-007	0.00000E+000	-3.28982E-001	0.00000E+000	7	...........	0
	174	17.5	-3.26036E-001	7.85410E-007	0.00000E+000	-3.25981E-001	0.00000E+000	7	...........	0
	177	17.8	-3.23033E-001	8.48427E-007	0.00000E+000	-3.22981E-001	0.00000E+000	7	...........	0
	180	18.1	-3.20030E-001	9.14112E-007	0.00000E+000	-3.19981E-001	0.00000E+000	7	...........	0
	183	18.4	-3.17027E-001	9.47788E-007	0.00000E+000	-3.16981E-001	0.00000E+000	7	...........	0
	186	18.7	-3.14024E-001	1.02247E-006	0.00000E+000	-3.13981E-001	0.00000E+000	7	...........	0
	189	19	-3.11021E-001	1.05115E-006	0.00000E+000	-3.10981E-001	0.00000E+000	7	...........	0
	192	19.3	-3.08018E-001	1.10750E-006	0.00000E+000	-3.07981E-001	0.00000E+000	7	...........	0
	195	19.6	-3.05116E-001	1.11217E-006	0.00000E+000	-3.04981E-001	0.00000E+000	7	...........	0
	198	19.9	-3.02013E-001	1.08983E-006	0.00000E+000	-3.01980E-001	0.00000E+000	7	...........	0
	201	20.2	-2.99110E-001	-3.58571E-007	0.00000E+000	-2.98980E-001	0.00000E+000	7	...........	0
	204	20.5	-2.96007E-001	-6.91583E-008	0.00000E+000	-2.95980E-001	0.00000E+000	7	...........	0
	207	20.8	-2.93004E-001	8.05495E-008	0.00000E+000	-2.92980E-001	0.00000E+000	7	...........	0
	210	21.1	-2.90001E-001	2.10919E-007	0.00000E+000	-2.89980E-001	0.00000E+000	7	...........	0
	213	21.4	-2.87098E-001	2.44595E-007	0.00000E+000	-2.86980E-001	0.00000E+000	7	...........	0
	216	21.7	-2.84095E-001	2.64600E-007	0.00000E+000	-2.83980E-001	0.00000E+000	7	...........	0
	219	22	-2.80992E-001	2.22589E-007	0.00000E+000	-2.80980E-001	0.00000E+000	7	...........	0
	222	22.3	-2.78089E-001	2.11252E-007	0.00000E+000	-2.77979E-001	0.00000E+000	7	...........	0
	225	22.6	-2.75086E-001	2.47262E-007	0.00000E+000	-2.74979E-001	0.00000E+000	7	...........	0
	228	22.9	-2.71983E-001	2.31591E-007	0.00000E+000	-2.71979E-001	0.00000E+000	7	...........	0
	231	23.2	-2.69080E-001	2.66267E-007	0.00000E+000	-2.68979E-001	0.00000E+000	7	...........	0
	234	23.5	-2.65877E-001	2.58265E-007	0.00000E+000	-2.65979E-001	0.00000E+000	7	...........	0
	237	23.8	-2.63074E-001	1.95915E-007	0.00000E+000	-2.62979E-001	0.00000E+000	7	...........	0
	240	24.1	-2.59971E-001	2.90941E-007	0.00000E+000	-2.59979E-001	0.00000E+000	7	...........	0
	243	24.4	-2.57068E-001	2.60599E-007	0.00000E+000	-2.56979E-001	0.00000E+000	7	...........	0
	246	24.7	-2.54065E-001	3.05945E-007	0.00000E+000	-2.53978E-001	0.00000E+000	7	...........	0
	249	25	-2.50962E-001	3.65294E-007	0.00000E+000	-2.50978E-001	0.00000E+000	7	...........	0
	252	25.3	-2.47959E-001	4.71216E-006	0.00000E+000	-2.47978E-001	0.00000E+000	7	...........	0
	255	25.6	-2.45056E-001	3.10238E-006	0.00000E+000	-2.44978E-001	0.00000E+000	7	...........	0
	258	25.9	-2.41923E-001	2.48188E-006	0.00000E+000	-2.41978E-001	0.00000E+000	7	...........	0
	261	26.2	-2.38970E-001	2.20980E-006	0.00000E+000	-2.38978E-001	0.00000E+000	7	...........	0
	264	26.5	-2.35927E-001	2.12311E-006	0.00000E+000	-2.35978E-001	0.00000E+000	7	...........	0
	267	26.8	-2.32994E-001	1.98407E-006	0.00000E+000	-2.32978E-001	0.00000E+000	7	...........	0
	270	27.1	-2.29981E-001	1.98074E-006	0.00000E+000	-2.29977E-001	0.00000E+000	7	...........	0
	273	27.4	-2.26928E-001	1.94439E-006	0.00000E+000	-2.26977E-001	0.00000E+000	7	...........	0
	276	27.7	-2.23935E-001	1.94540E-006	0.00000E+000	-2.23977E-001	0.00000E+000	7	...........	0
	279	28	-2.20962E-001	1.82103E-006	0.00000E+000	-2.20977E-001	0.00000E+000	7	...........	0
	282	28.3	-2.17949E-001	1.94773E-006	0.00000E+000	-2.17977E-001	0.00000E+000	7	...........	0
	285	28.6	-2.14966E-001	2.00074E-006	0.00000E+000	-2.14977E-001	0.00000E+000	7	...........	0
	288	28.9	-2.11953E-001	1.97174E-006	0.00000E+000	-2.11977E-001	0.00000E+000	7	...........	0
	291	29.2	-2.08960E-001	2.05676E-006	0.00000E+000	-2.08977E-001	0.00000E+000	7	...........	0
	294	29.5	-2.05967E-001	2.05509E-006	0.00000E+000	-2.05976E-001	0.00000E+000	7	...........	0
	297	29.8	-2.02944E-001	2.22014E-006	0.00000E+000	-2.02976E-001	0.00000E+000	7	...........	0
	300	30.1	-1.99971E-001	-1.05843E-006	0.00000E+000	-1.99976E-001	0.00000E+000	7	...........	0
	303	30.4	-1.96978E-001	-4.82605E-007	0.00000E+000	-1.96976E-001	0.00000E+000	7	...........	0
	306	30.7	-1.93965E-001	-2.31536E-007	0.00000E+000	-1.93976E-001	0.00000E+000	7	...........	0
	309	31	-1.90952E-001	-6.08227E-008	0.00000E+000	-1.90976E-001	0.00000E+000	7	...........	0
	312	31.3	-1.87969E-001	1.58651E-008	0.00000E+000	-1.87976E-001	0.00000E+000	7	...........	0
	315	31.6	-1.84987E-001	2.75350E-008	0.00000E+000	-1.84976E-001	0.00000E+000	7	...........	0
	318	31.9	-1.81964E-001	8.58843E-008	0.00000E+000	-1.81975E-001	0.00000E+000	7	...........	0
	321	32.2	-1.78971E-001	9.88879E-008	0.00000E+000	-1.78975E-001	0.00000E+000	7	...........	0
	324	32.5	-1.75958E-001	1.11225E-007	0.00000E+000	-1.75975E-001	0.00000E+000	7	...........	0
	327	32.8	-1.72965E-001	1.21227E-007	0.00000E+000	-1.72975E-001	0.00000E+000	7	...........	0
	330	33.1	-1.69972E-001	1.43233E-007	0.00000E+000	-1.69975E-001	0.00000E+000	7	...........	0
	333	33.4	-1.66999E-001	1.02889E-007	0.00000E+000	-1.67025E-001	0.00000E+000	7	...........	0
	336	33.7	-1.64006E-001	1.30897E-007	0.00000E+000	-1.64025E-001	0.00000E+000	7	...........	0
	339	34	-1.61043E-001	1.20227E-007	0.00000E+000	-1.61025E-001	0.00000E+000	7	...........	0
	342	34.3	-1.58020E-001	1.04223E-007	0.00000E+000	-1.58025E-001	0.00000E+000	7	...........	0
	345	34.6	-1.54997E-001	1.24562E-007	0.00000E+000	-1.55024E-001	0.00000E+000	7	...........	0
	348	34.9	-1.52024E-001	1.28563E-007	0.00000E+000	-1.52024E-001	0.00000E+000	7	...........	0
	351	35.2	-1.49051E-001	6.92743E-006	0.00000E+000	-1.49024E-001	0.00000E+000	7	...........	0
	354	35.5	-1.46058E-001	5.00457E-006	0.00000E+000	-1.46024E-001	0.00000E+000	7	...........	0
	357	35.8	-1.43035E-001	4.31438E-006	0.00000E+000	-1.43024E-001	0.00000E+000	7	...........	0
	360	36.1	-1.40052E-001	3.97395E-006	0.00000E+000	-1.40024E-001	0.00000E+000	7	...........	0
	363	36.4	-1.37069E-001	3.83491E-006	0.00000E+000	-1.37024E-001	0.00000E+000	7	...........	0
	366	36.7	-1.34026E-001	3.79824E-006	0.00000E+000	-1.34024E-001	0.00000E+000	7	...........	0
	369	37	-1.31053E-001	3.79890E-006	0.00000E+000	-1.31023E-001	0.00000E+000	7	...........	0
	372	37.3	-1.28060E-001	3.72088E-006	0.00000E+000	-1.28023E-001	0.00000E+000	7	...........	0
	375	37.6	-1.25027E-001	3.83591E-006	0.00000E+000	-1.25023E-001	0.00000E+000	7	...........	0
	378	37.9	-1.22044E-001	3.94494E-006	0.00000E+000	-1.22023E-001	0.00000E+000	7	...........	0
	381	38.2	-1.19081E-001	3.95628E-006	0.00000E+000	-1.19023E-001	0.00000E+000	7	...........	0
	384	38.5	-1.16018E-001	3.91260E-006	0.00000E+000	-1.16023E-001	0.00000E+000	7	...........	0
	387	38.8	-1.13055E-001	4.05731E-006	0.00000E+000	-1.13023E-001	0.00000E+000	7	...........	0
	390	39.1	-1.10032E-001	4.10299E-006	0.00000E+000	-1.10023E-001	0.00000E+000	7	...........	0
	393	39.4	-1.07069E-001	4.26637E-006	0.00000E+000	-1.07022E-001	0.00000E+000	7	...........	0
	396	39.7	-1.04016E-001	4.28004E-006	0.00000E+000	-1.04022E-001	0.00000E+000	7	...........	0
	399	40	-1.01043E-001	-1.36418E-006	0.00000E+000	-1.01022E-001	0.00000E+000	7	...........	0
	402	40.3	-9.80400E-002	-6.87995E-007	0.00000E+000	-9.80221E-002	0.00000E+000	7	...........	0
	405	40.6	-9.50270E-002	-3.18560E-007	0.00000E+000	-9.50219E-002	0.00000E+000	7	...........	0
	408	40.9	-9.20540E-002	-2.19533E-007	0.00000E+000	-9.20218E-002	0.00000E+000	7	...........	0
	411	41.2	-8.89509E-002	-1.03501E-007	0.00000E+000	-8.90217E-002	0.00000E+000	7	...........	0
	414	41.5	-8.60380E-002	-6.28232E-008	0.00000E+000	-8.60216E-002	0.00000E+000	7	...........	0
	417	41.8	-8.30550E-002	8.62177E-008	0.00000E+000	-8.30214E-002	0.00000E+000	7	...........	0
	420	42.1	-8.00621E-002	5.75432E-008	0.00000E+000	-8.00213E-002	0.00000E+000	7	...........	0
	423	42.4	-7.70591E-002	1.03889E-007	0.00000E+000	-7.70212E-002	0.00000E+000	7	...........	0
	426	42.7	-7.40961E-002	3.28698E-008	0.00000E+000	-7.40211E-002	0.00000E+000	7	...........	0
	429	43	-7.10731E-002	7.72153E-008	0.00000E+000	-7.10210E-002	0.00000E+000	7	...........	0
	432	43.3	-6.80001E-002	3.25363E-008	0.00000E+000	-6.80208E-002	0.00000E+000	7	...........	0
	435	43.6	-6.50571E-002	5.95438E-008	0.00000E+000	-6.50207E-002	0.00000E+000	7	...........	0
	438	43.9	-6.20842E-002	5.52092E-008	0.00000E+000	-6.20206E-002	0.00000E+000	7	...........	0
	441	44.2	-5.90612E-002	5.12081E-008	0.00000E+000	-5.90205E-002	0.00000E+000	7	...........	0
	444	44.5	-5.60682E-002	4.22057E-008	0.00000E+000	-5.60203E-002	0.00000E+000	7	...........	0
	447	44.8	-5.30452E-002	5.86234E-009	0.00000E+000	-5.30202E-002	0.00000E+000	7	...........	0
	450	45.1	-5.00622E-002	3.45369E-008	0.00000E+000	-5.00201E-002	0.00000E+000	7	...........	0
	453	45.4	-4.70392E-002	9.90597E-006	0.00000E+000	-4.70200E-002	0.00000E+000	8	...........	0
	456	45.7	-4.40362E-002	8.16918E-006	0.00000E+000	-4.40199E-002	0.00000E+000	8	...........	0
	459	46	-4.10332E-002	7.49692E-006	0.00000E+000	-4.10197E-002	0.00000E+000	7	...........	0
	462	46.3	-3.80302E-002	7.32421E-006	0.00000E+000	-3.80196E-002	0.00000E+000	7	...........	0
	465	46.6	-3.50373E-002	7.30120E-006	0.00000E+000	-3.50195E-002	0.00000E+000	7	...........	0
	468	46.9	-3.20443E-002	7.07280E-006	0.00000E+000	-3.20194E-002	0.00000E+000	7	...........	0
	471	47.2	-2.90313E-002	7.09314E-006	0.00000E+000	-2.90192E-002	0.00000E+000	7	...........	0
	474	47.5	-2.60383E-002	7.05613E-006	0.00000E+000	-2.60191E-002	0.00000E+000	7	...........	0
	477	47.8	-2.30090E-002	6.88975E-006	0.00000E+000	-2.30190E-002	0.00000E+000	7	...........	0
	480	48.1	-2.00501E-002	6.90442E-006	0.00000E+000	-2.00189E-002	0.00000E+000	7	...........	0
	483	48.4	-1.70441E-002	7.05446E-006	0.00000E+000	-1.70187E-002	0.00000E+000	7	...........	0
	486	48.7	-1.40712E-002	6.95377E-006	0.00000E+000	-1.40186E-002	0.00000E+000	7	...........	0
	489	49	-1.10341E-002	7.06247E-006	0.00000E+000	-1.10185E-002	0.00000E+000	7	...........	0
	492	49.3	-8.09420E-003	6.93043E-006	0.00000E+000	-8.01838E-003	0.00000E+000	7	...........	0
	495	49.6	-5.06319E-003	6.89309E-006	0.00000E+000	-5.01826E-003	0.00000E+000	7	...........	0
	498	49.9	-2.08422E-003	6.04952E-006	0.00000E+000	-2.01814E-003	0.00000E+000	7	...........	0
	501	50.2	9.27776E-004	-1.34017E-006	0.00000E+000	9.81987E-004	0.00000E+000	7	...........	0
	504	50.5	3.91875E-003	-8.64377E-007	0.00000E+000	3.98211E-003	0.00000E+000	7	...........	0
	507	50.8	6.95477E-003	-6.97331E-007	0.00000E+000	6.98223E-003	0.00000E+000	7	...........	0
	510	51.1	9.93574E-003	-5.25283E-007	0.00000E+000	9.98235E-003	0.00000E+000	7	...........	0
	513	51.4	1.28917E-002	-4.56931E-007	0.00000E+000	1.29825E-002	0.00000E+000	7	...........	0
	516	51.7	1.59848E-002	-3.74576E-007	0.00000E+000	1.59826E-002	0.00000E+000	7	...........	0
	519	52	1.89587E-002	-2.66879E-007	0.00000E+000	1.89827E-002	0.00000E+000	7	...........	0
	522	52.3	2.19477E-002	-3.07557E-007	0.00000E+000	2.19828E-002	0.00000E+000	7	...........	0
	525	52.6	2.49537E-002	-2.36538E-007	0.00000E+000	2.49830E-002	0.00000E+000	7	...........	0
	528	52.9	2.79454E-002	-1.50847E-007	0.00000E+000	2.79831E-002	0.00000E+000	7	...........	0
	531	53.2	3.09785E-002	-1.15171E-007	0.00000E+000	3.09832E-002	0.00000E+000	7	...........	0
	534	53.5	3.39714E-002	-4.88194E-008	0.00000E+000	3.39833E-002	0.00000E+000	7	...........	0
	537	53.8	3.69744E-002	-1.39313E-010	0.00000E+000	3.69835E-002	0.00000E+000	7	...........	0
	540	54.1	3.99974E-002	-8.14151E-009	0.00000E+000	3.99836E-002	0.00000E+000	7	...........	0
	543	54.4	4.30004E-002	9.18860E-008	0.00000E+000	4.29837E-002	0.00000E+000	7	...........	0
	546	54.7	4.59634E-002	1.19894E-007	0.00000E+000	4.59838E-002	0.00000E+000	7	...........	0
	549	55	4.89764E-002	1.39232E-007	0.00000E+000	4.89840E-002	0.00000E+000	7	...........	0
	552	55.3	5.19593E-002	1.47196E-005	0.00000E+000	5.19841E-002	0.00000E+000	8	...........	0
	555	55.6	5.49223E-002	1.21261E-005	0.00000E+000	5.49842E-002	0.00000E+000	8	...........	0
	558	55.9	5.79653E-002	1.14327E-005	0.00000E+000	5.79843E-002	0.00000E+000	8	...........	0
	561	56.2	6.09683E-002	1.09227E-005	0.00000E+000	6.09844E-002	0.00000E+000	8	...........	0
	564	56.5	6.39813E-002	1.06227E-005	0.00000E+000	6.39846E-002	0.00000E+000	8	...........	0
	567	56.8	6.69643E-002	1.05960E-005	0.00000E+000	6.69847E-002	0.00000E+000	8	...........	0
	570	57.1	6.99172E-002	1.04427E-005	0.00000E+000	6.99848E-002	0.00000E+000	8	...........	0
	573	57.4	7.29302E-002	1.05193E-005	0.00000E+000	7.29849E-002	0.00000E+000	8	...........	0
	576	57.7	7.59632E-002	1.03960E-005	0.00000E+000	7.59851E-002	0.00000E+000	8	...........	0
	579	58	7.89662E-002	1.04493E-005	0.00000E+000	7.89852E-002	0.00000E+000	8	...........	0
	582	58.3	8.19692E-002	1.03593E-005	0.00000E+000	8.19853E-002	0.00000E+000	8	...........	0
	585	58.6	8.49722E-002	1.04127E-005	0.00000E+000	8.49854E-002	0.00000E+000	8	...........	0
	588	58.9	8.79552E-002	1.02393E-005	0.00000E+000	8.79855E-002	0.00000E+000	8	...........	0
	591	59.2	9.09181E-002	1.06560E-005	0.00000E+000	9.09857E-002	0.00000E+000	8	...........	0
	594	59.5	9.39511E-002	1.06794E-005	0.00000E+000	9.39858E-002	0.00000E+000	8	...........	0
	597	59.8	9.69541E-002	1.04293E-005	0.00000E+000	9.69859E-002	0.00000E+000	8	...........	0
	600	60.1	9.99871E-002	-1.40986E-006	0.00000E+000	9.99860E-002	0.00000E+000	7	...........	0
	603	60.4	1.02930E-001	-9.32729E-007	0.00000E+000	1.02986E-001	0.00000E+000	7	...........	0
	606	60.7	1.05893E-001	-5.96636E-007	0.00000E+000	1.05986E-001	0.00000E+000	7	...........	0
	609	61	1.08916E-001	-4.05584E-007	0.00000E+000	1.08986E-001	0.00000E+000	7	...........	0
	612	61.3	1.11919E-001	-2.00194E-007	0.00000E+000	1.11987E-001	0.00000E+000	7	...........	0
	615	61.6	1.14942E-001	-1.49847E-007	0.00000E+000	1.14987E-001	0.00000E+000	7	...........	0
	618	61.9	1.17935E-001	-9.58323E-008	0.00000E+000	1.17987E-001	0.00000E+000	7	...........	0
	621	62.2	1.20948E-001	-7.18257E-008	0.00000E+000	1.20987E-001	0.00000E+000	7	...........	0
	624	62.5	1.23941E-001	-2.47329E-009	0.00000E+000	1.23987E-001	0.00000E+000	7	...........	0
	627	62.8	1.26984E-001	-1.38097E-008	0.00000E+000	1.26987E-001	0.00000E+000	7	...........	0
	630	63.1	1.29977E-001	6.28780E-008	0.00000E+000	1.29987E-001	0.00000E+000	7	...........	0
	633	63.4	1.32920E-001	-7.80809E-009	0.00000E+000	1.32987E-001	0.00000E+000	7	...........	0
	636	63.7	1.35953E-001	4.65402E-008	0.00000E+000	1.35988E-001	0.00000E+000	7	...........	0
	639	64	1.38896E-001	1.39566E-007	0.00000E+000	1.38988E-001	0.00000E+000	7	...........	0
	642	64.3	1.41969E-001	1.94247E-007	0.00000E+000	1.41988E-001	0.00000E+000	7	...........	0
	645	64.6	1.44952E-001	1.53903E-007	0.00000E+000	1.44988E-001	0.00000E+000	7	...........	0
	648	64.9	1.47955E-001	3.87967E-007	0.00000E+000	1.47988E-001	0.00000E+000	7	...........	0
	651	65.2	1.50948E-001	1.70898E-005	0.00000E+000	1.50988E-001	0.00000E+000	8	...........	0
	654	65.5	1.53921E-001	1.53130E-005	0.00000E+000	1.53988E-001	0.00000E+000	8	...........	0
	657	65.8	1.56924E-001	1.45996E-005	0.00000E+000	1.56988E-001	0.00000E+000	8	...........	0
	660	66.1	1.59957E-001	1.43529E-005	0.00000E+000	1.59988E-001	0.00000E+000	8	...........	0
	663	66.4	1.62920E-001	1.44096E-005	0.00000E+000	1.62989E-001	0.00000E+000	8	...........	0
	666	66.7	1.65923E-001	1.41563E-005	0.00000E+000	1.65989E-001	0.00000E+000	8	...........	0
	669	67	1.68936E-001	1.38562E-005	0.00000E+000	1.68989E-001	0.00000E+000	8	...........	0
	672	67.3	1.71929E-001	1.36796E-005	0.00000E+000	1.71989E-001	0.00000E+000	8	...........	0
	675	67.6	1.74912E-001	1.36629E-005	0.00000E+000	1.74989E-001	0.00000E+000	8	...........	0
	678	67.9	1.77955E-001	1.38162E-005	0.00000E+000	1.77989E-001	0.00000E+000	8	...........	0
	681	68.2	1.80968E-001	1.37029E-005	0.00000E+000	1.80989E-001	0.00000E+000	8	...........	0
	684	68.5	1.83941E-001	1.38662E-005	0.00000E+000	1.83989E-001	0.00000E+000	8	...........	0
	687	68.8	1.86914E-001	1.37062E-005	0.00000E+000	1.86990E-001	0.00000E+000	8	...........	0
	690	69.1	1.89937E-001	1.35829E-005	0.00000E+000	1.89990E-001	0.00000E+000	8	...........	0
	693	69.4	1.92940E-001	1.38696E-005	0.00000E+000	1.92990E-001	0.00000E+000	8	...........	0
	696	69.7	1.95933E-001	1.40329E-005	0.00000E+000	1.95990E-001	0.00000E+000	8	...........	0
	699	70	1.98936E-001	-1.20414E-006	0.00000E+000	1.98990E-001	0.00000E+000	7	...........	0
	702	70.3	2.01929E-001	-8.48372E-007	0.00000E+000	2.01990E-001	0.00000E+000	7	...........	0
	705	70.6	2.04942E-001	-5.11947E-007	0.00000E+000	2.04990E-001	0.00000E+000	7	...........	0
	708	70.9	2.07945E-001	-2.62545E-007	0.00000E+000	2.07990E-001	0.00000E+000	7	...........	0
	711	71.2	2.10948E-001	-1.41432E-008	0.00000E+000	2.10991E-001	0.00000E+000	7	...........	0
	714	71.5	2.13931E-001	8.92186E-008	0.00000E+000	2.13991E-001	0.00000E+000	7	...........	0
	717	71.8	2.16924E-001	1.51236E-007	0.00000E+000	2.16991E-001	0.00000E+000	7	...........	0
	720	72.1	2.19917E-001	2.39260E-007	0.00000E+000	2.19991E-001	0.00000E+000	7	...........	0
	723	72.4	2.22889E-001	1.24228E-007	0.00000E+000	2.22991E-001	0.00000E+000	7	...........	0
	726	72.7	2.25943E-001	7.62150E-008	0.00000E+000	2.25991E-001	0.00000E+000	7	...........	0
	729	73	2.28915E-001	3.42035E-008	0.00000E+000	2.28991E-001	0.00000E+000	7	...........	0
	732	73.3	2.31898E-001	6.95465E-008	0.00000E+000	2.31991E-001	0.00000E+000	7	...........	0
	735	73.6	2.34941E-001	1.78243E-007	0.00000E+000	2.34992E-001	0.00000E+000	7	...........	0
	738	73.9	2.37894E-001	2.13586E-007	0.00000E+000	2.37992E-001	0.00000E+000	7	...........	0
	741	74.2	2.40907E-001	3.15281E-007	0.00000E+000	2.40992E-001	0.00000E+000	7	...........	0
	744	74.5	2.43940E-001	2.42927E-007	0.00000E+000	2.43992E-001	0.00000E+000	7	...........	0
	747	74.8	2.46893E-001	2.31924E-007	0.00000E+000	2.46992E-001	0.00000E+000	7	...........	0
	750	75.1	2.49876E-001	1.09265E-005	0.00000E+000	2.49992E-001	0.00000E+000	7	....ih..i..	0
	753	75.4	2.52909E-001	2.03700E-005	0.00000E+000	2.52992E-001	0.00000E+000	8	...........	0
	756	75.7	2.55942E-001	1.89699E-005	0.00000E+000	2.55992E-001	0.00000E+000	8	...........	0
	759	76	2.58895E-001	1.86132E-005	0.00000E+000	2.58993E-001	0.00000E+000	8	...........	0
	762	76.3	2.61878E-001	1.86599E-005	0.00000E+000	2.61993E-001	0.00000E+000	8	...........	0
	765	76.6	2.64911E-001	1.82999E-005	0.00000E+000	2.64993E-001	0.00000E+000	8	...........	0
	768	76.9	2.68055E-001	1.82966E-005	0.00000E+000	2.67993E-001	0.00000E+000	8	...........	0
	771	77.2	2.71058E-001	1.83166E-005	0.00000E+000	2.70993E-001	0.00000E+000	8	...........	0
	774	77.5	2.73961E-001	1.81832E-005	0.00000E+000	2.73993E-001	0.00000E+000	8	...........	0
	777	77.8	2.77064E-001	1.81099E-005	0.00000E+000	2.76993E-001	0.00000E+000	8	...........	0
	780	78.1	2.79967E-001	1.78432E-005	0.00000E+000	2.79993E-001	0.00000E+000	8	...........	0
	783	78.4	2.82970E-001	1.78432E-005	0.00000E+000	2.82993E-001	0.00000E+000	8	...........	0
	786	78.7	2.85973E-001	1.85732E-005	0.00000E+000	2.85994E-001	0.00000E+000	8	...........	0
	789	79	2.89076E-001	1.86599E-005	0.00000E+000	2.88994E-001	0.00000E+000	8	...........	0
	792	79.3	2.92079E-001	1.87032E-005	0.00000E+000	2.91994E-001	0.00000E+000	8	...........	0
	795	79.6	2.94982E-001	1.84766E-005	0.00000E+000	2.94994E-001	0.00000E+000	8	...........	0
	798	79.9	2.98185E-001	1.47863E-005	0.00000E+000	2.97994E-001	0.00000E+000	8	...........	0
	801	80.2	3.01088E-001	-7.17670E-007	0.00000E+000	3.00994E-001	0.00000E+000	7	...........	0
	804	80.5	3.04091E-001	-5.47290E-007	0.00000E+000	3.03994E-001	0.00000E+000	7	...........	0
	807	80.8	3.07194E-001	-3.88579E-007	0.00000E+000	3.06994E-001	0.00000E+000	7	...........	0
	810	81.1	3.10097E-001	-4.46929E-007	0.00000E+000	3.09995E-001	0.00000E+000	7	...........	0
	813	81.4	3.13100E-001	-4.32591E-007	0.00000E+000	3.12995E-001	0.00000E+000	7	...........	0
	816	81.7	3.16003E-001	-3.83245E-007	0.00000E+000	3.15995E-001	0.00000E+000	7	...........	0
	819	82	3.19106E-001	-1.98861E-007	0.00000E+000	3.18995E-001	0.00000E+000	7	...........	0
	822	82.3	3.22209E-001	-5.08199E-008	0.00000E+000	3.21995E-001	0.00000E+000	7	...........	0
	825	82.6	3.25112E-001	9.35531E-008	0.00000E+000	3.24995E-001	0.00000E+000	7	...........	0
	828	82.9	3.28115E-001	2.09918E-007	0.00000E+000	3.27995E-001	0.00000E+000	7	...........	0
	831	83.2	3.31018E-001	1.70241E-007	0.00000E+000	3.30995E-001	0.00000E+000	7	...........	0
	834	83.5	3.34021E-001	1.88579E-007	0.00000E+000	3.33996E-001	0.00000E+000	7	...........	0
	837	83.8	3.37024E-001	1.49902E-007	0.00000E+000	3.36996E-001	0.00000E+000	7	...........	0
	840	84.1	3.40027E-001	1.07890E-007	0.00000E+000	3.39996E-001	0.00000E+000	7	...........	0
	843	84.4	3.43130E-001	1.12225E-007	0.00000E+000	3.42996E-001	0.00000E+000	7	...........	0
	846	84.7	3.46033E-001	1.30230E-007	0.00000E+000	3.45996E-001	0.00000E+000	7	...........	0
	849	85	3.49136E-001	1.97915E-007	0.00000E+000	3.48996E-001	0.00000E+000	7	...........	0
	852	85.3	3.52139E-001	2.64571E-005	0.00000E+000	3.51996E-001	0.00000E+000	8	...........	0
	855	85.6	3.55042E-001	2.50270E-005	0.00000E+000	3.54996E-001	0.00000E+000	8	...........	0
	858	85.9	3.58145E-001	2.41603E-005	0.00000E+000	3.57997E-001	0.00000E+000	8	...........	0
	861	86.2	3.61148E-001	2.36503E-005	0.00000E+000	3.60997E-001	0.00000E+000	8	...........	0
	864	86.5	3.64050E-001	2.35369E-005	0.00000E+000	3.63997E-001	0.00000E+000	8	...........	0
	867	86.8	3.67053E-001	2.35236E-005	0.00000E+000	3.66997E-001	0.00000E+000	8	...........	0
	870	87.1	3.70056E-001	2.35803E-005	0.00000E+000	3.69997E-001	0.00000E+000	8	...........	0
	873	87.4	3.73160E-001	2.35903E-005	0.00000E+000	3.72997E-001	0.00000E+000	8	...........	0
	876	87.7	3.76162E-001	2.36036E-005	0.00000E+000	3.75997E-001	0.00000E+000	8	...........	0
	879	88	3.79166E-001	2.37636E-005	0.00000E+000	3.78997E-001	0.00000E+000	8	...........	0
	882	88.3	3.82068E-001	2.38603E-005	0.00000E+000	3.81998E-001	0.00000E+000	8	...........	0
	885	88.6	3.85071E-001	2.40036E-005	0.00000E+000	3.84998E-001	0.00000E+000	8	...........	0
	888	88.9	3.88074E-001	2.42570E-005	0.00000E+000	3.87998E-001	0.00000E+000	8	...........	0
	891	89.2	3.90977E-001	2.43036E-005	0.00000E+000	3.90998E-001	0.00000E+000	8	...........	0
	894	89.5	3.94080E-001	2.42403E-005	0.00000E+000	3.93998E-001	0.00000E+000	8	...........	0
	897	89.8	3.97083E-001	2.37936E-005	0.00000E+000	3.96998E-001	0.00000E+000	8	...........	0
	900	90.1	4.00186E-001	1.37537E-006	0.00000E+000	3.99998E-001	0.00000E+000	8	...........	0
	903	90.4	4.02989E-001	2.40260E-007	0.00000E+000	4.02998E-001	0.00000E+000	7	...........	0
	906	90.7	4.06192E-001	1.91913E-007	0.00000E+000	4.05999E-001	0.00000E+000	7	...........	0
	909	91	4.08995E-001	1.81911E-007	0.00000E+000	4.08999E-001	0.00000E+000	7	...........	0
	912	91.3	4.12098E-001	2.37926E-007	0.00000E+000	4.11999E-001	0.00000E+000	7	...........	0
	915	91.6	4.15101E-001	2.34592E-007	0.00000E+000	4.14999E-001	0.00000E+000	7	...........	0
	918	91.9	4.18104E-001	2.39927E-007	0.00000E+000	4.17999E-001	0.00000E+000	7	...........	0
	921	92.2	4.21107E-001	2.46262E-007	0.00000E+000	4.20999E-001	0.00000E+000	7	...........	0
	924	92.5	4.24110E-001	2.36926E-007	0.00000E+000	4.23999E-001	0.00000E+000	7	...........	0
	927	92.8	4.27113E-001	3.49290E-007	0.00000E+000	4.26999E-001	0.00000E+000	7	...........	0
	930	93.1	4.30116E-001	3.10613E-007	0.00000E+000	4.30000E-001	0.00000E+000	7	...........	0
	933	93.4	4.33119E-001	2.74936E-007	0.00000E+000	4.33000E-001	0.00000E+000	7	...........	0
	936	93.7	4.36122E-001	2.70602E-007	0.00000E+000	4.36000E-001	0.00000E+000	7	...........	0
	939	94	4.39125E-001	3.12280E-007	0.00000E+000	4.39000E-001	0.00000E+000	7	...........	0
	942	94.3	4.42128E-001	3.35286E-007	0.00000E+000	4.42000E-001	0.00000E+000	7	...........	0
	945	94.6	4.45131E-001	3.48623E-007	0.00000E+000	4.45000E-001	0.00000E+000	7	...........	0
	948	94.9	4.48134E-001	3.74297E-007	0.00000E+000	4.48000E-001	0.00000E+000	7	...........	0
	951	95.2	4.51037E-001	1.09265E-005	0.00000E+000	4.51000E-001	0.00000E+000	7	....ih..i..	0
	954	95.5	4.54040E-001	2.95473E-005	0.00000E+000	4.54001E-001	0.00000E+000	8	...........	0
	957	95.8	4.57043E-001	2.84839E-005	0.00000E+000	4.57001E-001	0.00000E+000	8	...........	0
	960	96.1	4.60146E-001	2.80072E-005	0.00000E+000	4.60001E-001	0.00000E+000	8	...........	0
	963	96.4	4.63149E-001	2.77872E-005	0.00000E+000	4.63001E-001	0.00000E+000	8	...........	0
	966	96.7	4.66152E-001	2.79339E-005	0.00000E+000	4.66001E-001	0.00000E+000	8	...........	0
	969	97	4.69055E-001	2.76539E-005	0.00000E+000	4.69001E-001	0.00000E+000	8	...........	0
	972	97.3	4.72158E-001	2.79906E-005	0.00000E+000	4.72001E-001	0.00000E+000	8	...........	0
	975	97.6	4.75061E-001	2.80972E-005	0.00000E+000	4.75001E-001	0.00000E+000	8	...........	0
	978	97.9	4.78064E-001	2.79039E-005	0.00000E+000	4.78001E-001	0.00000E+000	8	...........	0
	981	98.2	4.81067E-001	2.81939E-005	0.00000E+000	4.81002E-001	0.00000E+000	8	...........	0
	984	98.5	4.84070E-001	2.84606E-005	0.00000E+000	4.84002E-001	0.00000E+000	8	...........	0
	987	98.8	4.87173E-001	2.83339E-005	0.00000E+000	4.87002E-001	0.00000E+000	8	...........	0
	990	99.1	4.90076E-001	2.84039E-005	0.00000E+000	4.90002E-001	0.00000E+000	8	...........	0
	993	99.4	4.93079E-001	2.83706E-005	0.00000E+000	4.93002E-001	0.00000E+000	8	...........	0
	996	99.7	4.96082E-001	2.81406E-005	0.00000E+000	4.96002E-001	0.00000E+000	8	...........	0
	999	100	4.99185E-001	7.22245E-006	0.00000E+000	4.99002E-001	0.00000E+000	8	...........	0
	1002	100.3	5.02088E-001	8.23087E-007	0.00000E+000	5.02002E-001	0.00000E+000	7	...........	0
	1005	100.6	5.05091E-001	5.72351E-007	0.00000E+000	5.05003E-001	0.00000E+000	7	...........	0
	1008	100.9	5.08094E-001	5.55347E-007	0.00000E+000	5.08003E-001	0.00000E+000	7	...........	0
	1011	101.2	5.11197E-001	5.24005E-007	0.00000E+000	5.11003E-001	0.00000E+000	7	...........	0
	1014	101.5	5.14100E-001	5.03666E-007	0.00000E+000	5.14003E-001	0.00000E+000	7	...........	0
	1017	101.8	5.17103E-001	5.90690E-007	0.00000E+000	5.17003E-001	0.00000E+000	7	...........	0
	1020	102.1	5.20206E-001	5.52012E-007	0.00000E+000	5.20003E-001	0.00000E+000	7	...........	0
	1023	102.4	5.23109E-001	6.03693E-007	0.00000E+000	5.23003E-001	0.00000E+000	7	...........	0
	1026	102.7	5.26112E-001	7.12056E-007	0.00000E+000	5.26003E-001	0.00000E+000	7	...........	0
	1029	103	5.29215E-001	7.72406E-007	0.00000E+000	5.29004E-001	0.00000E+000	7	...........	0
	1032	103.3	5.32218E-001	8.32423E-007	0.00000E+000	5.32004E-001	0.00000E+000	7	...........	0
	1035	103.6	5.35121E-001	8.72100E-007	0.00000E+000	5.35004E-001	0.00000E+000	7	...........	0
	1038	103.9	5.38124E-001	9.44454E-007	0.00000E+000	5.38004E-001	0.00000E+000	7	...........	0
	1041	104.2	5.41027E-001	9.52789E-007	0.00000E+000	5.41004E-001	0.00000E+000	7	...........	0
	1044	104.5	5.44130E-001	9.62792E-007	0.00000E+000	5.44004E-001	0.00000E+000	7	...........	0
	1047	104.8	5.47133E-001	9.95801E-007	0.00000E+000	5.47004E-001	0.00000E+000	7	...........	0
	1050	105.1	5.50136E-001	1.34556E-006	0.00000E+000	5.50004E-001	0.00000E+000	7	...........	0
	1053	105.4	5.53139E-001	3.37543E-005	0.00000E+000	5.53005E-001	0.00000E+000	8	...........	0
	1056	105.7	5.56142E-001	3.27776E-005	0.00000E+000	5.56005E-001	0.00000E+000	8	...........	0
	1059	106	5.59145E-001	3.20575E-005	0.00000E+000	5.59005E-001	0.00000E+000	8	...........	0
	1062	106.3	5.62148E-001	3.21108E-005	0.00000E+000	5.62005E-001	0.00000E+000	8	...........	0
	1065	106.6	5.65151E-001	3.21809E-005	0.00000E+000	5.65005E-001	0.00000E+000	8	...........	0
	1068	106.9	5.68053E-001	3.20142E-005	0.00000E+000	5.68005E-001	0.00000E+000	8	...........	0
	1071	107.2	5.71056E-001	3.17208E-005	0.00000E+000	5.71005E-001	0.00000E+000	8	...........	0
	1074	107.5	5.74160E-001	3.14775E-005	0.00000E+000	5.74005E-001	0.00000E+000	8	...........	0
	1077	107.8	5.77163E-001	3.14575E-005	0.00000E+000	5.77006E-001	0.00000E+000	8	...........	0
	1080	108.1	5.80166E-001	3.16375E-005	0.00000E+000	5.80006E-001	0.00000E+000	8	...........	0
	1083	108.4	5.83169E-001	3.19342E-005	0.00000E+000	5.83006E-001	0.00000E+000	8	...........	0
	1086	108.7	5.86172E-001	3.18375E-005	0.00000E+000	5.86006E-001	0.00000E+000	8	...........	0
	1089	109	5.89175E-001	3.24575E-005	0.00000E+000	5.89006E-001	0.00000E+000	8	...........	0
	1092	109.3	5.92077E-001	3.27876E-005	0.00000E+000	5.92006E-001	0.00000E+000	8	...........	0
	1095	109.6	5.95080E-001	3.29509E-005	0.00000E+000	5.95006E-001	0.00000E+000	8	...........	0
	1098	109.9	5.98083E-001	3.28076E-005	0.00000E+000	5.98006E-001	0.00000E+000	8	...........	0
	1100	110.1	6.00186E-001	4.37225E-006	0.00000E+000	6.00006E-001	0.00000E+000	8	...........	0