File: LSV ZFO/ZFO_h400_light2.DTA
EXPLAIN
TAG	LSV
TITLE	LABEL	Linear Sweep Voltammetry	Test &Identifier
DATE	LABEL	7/5/2024	Date
TIME	LABEL	17:00:13	Time
NOTES	NOTES	1	&Notes...

PSTAT	PSTAT	L3FNano	Potentiostat
VINIT	POTEN	-5.00000E-001	F	&Initial E (V)
VFINAL	POTEN	6.00000E-001	F	&Final E (V)
SCANRATE	QUANT	9.99998E+000	&Scan Rate (mV/s)
STEPSIZE	QUANT	1.00000E+000	St&ep Size (mV)
IMODE	SELECTOR	0	I/E Range &Mode
IRANGE	QUANT	1.00000E+001	&Max Current (mA)
AREA	QUANT	1.00000E+000	Electrode &Area (cm^2)
ELECTRODETYPE	SELECTOR	0	Electrode Type
STRIPPING	TOGGLE	F	Used for Stripping
POLARITY	TOGGLE	F	Signal Polarity
CONDIT	TWOPARAM	F	1.50000E+001	0.00000E+000	Conditionin&g	Time(s)	E(V)
DELAY	TWOPARAM	F	3.00000E+001	0.00000E+000	Init. De&lay	Time(s)	Stab.(mV/s)
EQDELAY	QUANT	5.00000E+000	Equil. &Time (s)
IRCOMP	SELECTOR	0	IRCom&p
PFCOR	QUANT	5.00000E+001	PF Corr. (ohm)
SAMPLINGMODE	SELECTOR	0	Sampling &Mode
EOC	QUANT	0	Open Circuit (V)
PSTATMODEL	IQUANT	48	Pstat Model
PSTATSECTION	LABEL	IFC1000-07082	Pstat Section
PSTATSERIALNO	LABEL	07082	Pstat Serial Number
CTRLMODE	IQUANT	1	Control Mode
IESTAB	IQUANT	2	I/E Stability
CASPEED	IQUANT	2	Control Amp Speed
CONVENTION	IQUANT	1	Current Convention
ICHRANGE	IQUANT	2	Ich Range
ICHRANGEMODE	TOGGLE	F	Ich Auto Range
ICHOFFSETENABLE	TOGGLE	F	Ich Offset Enable
ICHOFFSET	QUANT	0	Ich Offset (V)
ICHFILTER	IQUANT	3	Ich Filter
VCHRANGE	IQUANT	2	Vch Range
VCHRANGEMODE	TOGGLE	T	Vch Auto Range
VCHOFFSETENABLE	TOGGLE	F	Vch Offset Enable
VCHOFFSET	QUANT	0	Vch Offset (V)
VCHFILTER	IQUANT	3	Vch Filter
IERANGELOWERLIMIT	IQUANT	4	I/E Range Lower Limit
IERANGEMODE	TOGGLE	T	I/E AutoRange
IERANGE	IQUANT	11	I/E Range
ACHSELECT	IQUANT	4	Ach Select
CABLEID	IQUANT	14	Cable ID
DCCALDATE	LABEL	7/3/2024	DC Calibration Date
ACCALDATE	LABEL	7/3/2024	AC Calibration Date
FRAMEWORKVERSION	QUANT	6.24	Framework Version
INSTRUMENTVERSION	LABEL	3.28	Instrument Version
CURVE	TABLE	1101
	Pt	T	Vf	Im	Vu	Sig	Ach	IERange	Over	Cycle
	#	s	V vs. Ref.	A	V	V	V	#	bits	#
	0	0.1	-5.00010E-001	-1.39019E-006	0.00000E+000	-4.99988E-001	0.00000E+000	11	...........	0
	3	0.4	-4.97007E-001	-7.81860E-006	0.00000E+000	-4.96988E-001	0.00000E+000	8	...........	0
	6	0.7	-4.94104E-001	-6.91871E-006	0.00000E+000	-4.93988E-001	0.00000E+000	7	.....h.....	0
	9	1	-4.91101E-001	-6.05680E-006	0.00000E+000	-4.90988E-001	0.00000E+000	7	.....h.....	0
	12	1.3	-4.88098E-001	-6.04147E-006	0.00000E+000	-4.87988E-001	0.00000E+000	7	.....h.....	0
	15	1.6	-4.84995E-001	-5.21591E-006	0.00000E+000	-4.84988E-001	0.00000E+000	7	.....h.....	0
	18	1.9	-4.82092E-001	-5.37928E-006	0.00000E+000	-4.81988E-001	0.00000E+000	7	.....h.....	0
	21	2.2	-4.79089E-001	-4.96717E-006	0.00000E+000	-4.78988E-001	0.00000E+000	7	.....h.....	0
	24	2.5	-4.75986E-001	-4.33366E-006	0.00000E+000	-4.75987E-001	0.00000E+000	7	.....h.....	0
	27	2.8	-4.72983E-001	-4.41835E-006	0.00000E+000	-4.72987E-001	0.00000E+000	7	...........	0
	30	3.1	-4.70080E-001	-3.96223E-006	0.00000E+000	-4.69987E-001	0.00000E+000	7	...........	0
	33	3.4	-4.67077E-001	-3.60013E-006	0.00000E+000	-4.66987E-001	0.00000E+000	7	...........	0
	36	3.7	-4.64074E-001	-3.34172E-006	0.00000E+000	-4.63987E-001	0.00000E+000	7	...........	0
	39	4	-4.61071E-001	-2.77957E-006	0.00000E+000	-4.60987E-001	0.00000E+000	7	...........	0
	42	4.3	-4.57968E-001	-2.87726E-006	0.00000E+000	-4.57987E-001	0.00000E+000	7	...........	0
	45	4.6	-4.55065E-001	-2.62753E-006	0.00000E+000	-4.54987E-001	0.00000E+000	7	...........	0
	48	4.9	-4.51962E-001	-2.47382E-006	0.00000E+000	-4.51987E-001	0.00000E+000	7	...........	0
	51	5.2	-4.48959E-001	-2.36312E-006	0.00000E+000	-4.48986E-001	0.00000E+000	7	...........	0
	54	5.5	-4.46056E-001	-2.14239E-006	0.00000E+000	-4.45986E-001	0.00000E+000	7	...........	0
	57	5.8	-4.42953E-001	-2.25309E-006	0.00000E+000	-4.42986E-001	0.00000E+000	7	...........	0
	60	6.1	-4.40050E-001	-2.15506E-006	0.00000E+000	-4.39986E-001	0.00000E+000	7	...........	0
	63	6.4	-4.36947E-001	-1.94101E-006	0.00000E+000	-4.36986E-001	0.00000E+000	7	...........	0
	66	6.7	-4.33944E-001	-1.94401E-006	0.00000E+000	-4.33986E-001	0.00000E+000	7	...........	0
	69	7	-4.31041E-001	-1.84665E-006	0.00000E+000	-4.30986E-001	0.00000E+000	7	...........	0
	72	7.3	-4.28038E-001	-1.87532E-006	0.00000E+000	-4.27986E-001	0.00000E+000	7	...........	0
	75	7.6	-4.25035E-001	-1.87432E-006	0.00000E+000	-4.24985E-001	0.00000E+000	7	...........	0
	78	7.9	-4.21932E-001	-1.98035E-006	0.00000E+000	-4.21985E-001	0.00000E+000	7	...........	0
	81	8.2	-4.19029E-001	-2.07771E-006	0.00000E+000	-4.18985E-001	0.00000E+000	7	...........	0
	84	8.5	-4.15926E-001	-2.25042E-006	0.00000E+000	-4.15985E-001	0.00000E+000	7	...........	0
	87	8.8	-4.13023E-001	-2.02836E-006	0.00000E+000	-4.12985E-001	0.00000E+000	7	...........	0
	90	9.1	-4.10020E-001	-2.06704E-006	0.00000E+000	-4.09985E-001	0.00000E+000	7	...........	0
	93	9.4	-4.07017E-001	-2.23542E-006	0.00000E+000	-4.06985E-001	0.00000E+000	7	...........	0
	96	9.7	-4.04014E-001	-2.15306E-006	0.00000E+000	-4.03985E-001	0.00000E+000	7	...........	0
	99	10	-4.01011E-001	-2.28110E-006	0.00000E+000	-4.00984E-001	0.00000E+000	7	...........	0
	102	10.3	-3.97908E-001	-2.31778E-006	0.00000E+000	-3.97984E-001	0.00000E+000	7	...........	0
	105	10.6	-3.95005E-001	-2.69688E-006	0.00000E+000	-3.94984E-001	0.00000E+000	7	...........	0
	108	10.9	-3.92002E-001	-2.77490E-006	0.00000E+000	-3.91984E-001	0.00000E+000	7	...........	0
	111	11.2	-3.88899E-001	-2.91261E-006	0.00000E+000	-3.88984E-001	0.00000E+000	7	...........	0
	114	11.5	-3.85996E-001	-3.35473E-006	0.00000E+000	-3.85984E-001	0.00000E+000	7	...........	0
	117	11.8	-3.82993E-001	-2.97129E-006	0.00000E+000	-3.82984E-001	0.00000E+000	7	...........	0
	120	12.1	-3.79990E-001	-3.11866E-006	0.00000E+000	-3.79984E-001	0.00000E+000	7	...........	0
	123	12.4	-3.76887E-001	-3.18201E-006	0.00000E+000	-3.76983E-001	0.00000E+000	7	...........	0
	126	12.7	-3.73984E-001	-3.23636E-006	0.00000E+000	-3.73983E-001	0.00000E+000	7	...........	0
	129	13	-3.70981E-001	-3.71383E-006	0.00000E+000	-3.70983E-001	0.00000E+000	7	...........	0
	132	13.3	-3.67978E-001	-3.31038E-006	0.00000E+000	-3.67983E-001	0.00000E+000	7	...........	0
	135	13.6	-3.64975E-001	-3.27104E-006	0.00000E+000	-3.64983E-001	0.00000E+000	7	...........	0
	138	13.9	-3.62072E-001	-3.29871E-006	0.00000E+000	-3.61983E-001	0.00000E+000	7	...........	0
	141	14.2	-3.59069E-001	-3.33539E-006	0.00000E+000	-3.58983E-001	0.00000E+000	7	...........	0
	144	14.5	-3.56066E-001	-3.81719E-006	0.00000E+000	-3.55983E-001	0.00000E+000	7	...........	0
	147	14.8	-3.52963E-001	-3.38907E-006	0.00000E+000	-3.52982E-001	0.00000E+000	7	...........	0
	150	15.1	-3.50060E-001	-3.29471E-006	0.00000E+000	-3.49982E-001	0.00000E+000	7	...........	0
	153	15.4	-3.47057E-001	-3.31238E-006	0.00000E+000	-3.46982E-001	0.00000E+000	7	...........	0
	156	15.7	-3.44054E-001	-3.22469E-006	0.00000E+000	-3.43982E-001	0.00000E+000	7	...........	0
	159	16	-3.41151E-001	-3.77984E-006	0.00000E+000	-3.40982E-001	0.00000E+000	7	...........	0
	162	16.3	-3.38048E-001	-3.17568E-006	0.00000E+000	-3.37982E-001	0.00000E+000	7	...........	0
	165	16.6	-3.35145E-001	-3.22236E-006	0.00000E+000	-3.34982E-001	0.00000E+000	7	...........	0
	168	16.9	-3.32042E-001	-3.19835E-006	0.00000E+000	-3.31982E-001	0.00000E+000	7	...........	0
	171	17.2	-3.29039E-001	-3.35106E-006	0.00000E+000	-3.28982E-001	0.00000E+000	7	...........	0
	174	17.5	-3.25936E-001	-3.79885E-006	0.00000E+000	-3.25981E-001	0.00000E+000	7	...........	0
	177	17.8	-3.23033E-001	-3.19468E-006	0.00000E+000	-3.22981E-001	0.00000E+000	7	...........	0
	180	18.1	-3.20030E-001	-3.15901E-006	0.00000E+000	-3.19981E-001	0.00000E+000	7	...........	0
	183	18.4	-3.16927E-001	-3.16134E-006	0.00000E+000	-3.16981E-001	0.00000E+000	7	...........	0
	186	18.7	-3.14125E-001	-3.13933E-006	0.00000E+000	-3.13981E-001	0.00000E+000	7	...........	0
	189	19	-3.11021E-001	-3.31038E-006	0.00000E+000	-3.10981E-001	0.00000E+000	7	...........	0
	192	19.3	-3.08018E-001	-2.59052E-006	0.00000E+000	-3.07981E-001	0.00000E+000	7	...........	0
	195	19.6	-3.05015E-001	-2.73156E-006	0.00000E+000	-3.04981E-001	0.00000E+000	7	...........	0
	198	19.9	-3.02013E-001	-2.18307E-006	0.00000E+000	-3.01980E-001	0.00000E+000	7	...........	0
	201	20.2	-2.99010E-001	-2.31111E-006	0.00000E+000	-2.98980E-001	0.00000E+000	7	...........	0
	204	20.5	-2.96107E-001	-2.44848E-006	0.00000E+000	-2.95980E-001	0.00000E+000	7	...........	0
	207	20.8	-2.93004E-001	-2.02203E-006	0.00000E+000	-2.92980E-001	0.00000E+000	7	...........	0
	210	21.1	-2.90001E-001	-2.47048E-006	0.00000E+000	-2.89980E-001	0.00000E+000	7	...........	0
	213	21.4	-2.87098E-001	-2.00536E-006	0.00000E+000	-2.86980E-001	0.00000E+000	7	...........	0
	216	21.7	-2.84095E-001	-2.02536E-006	0.00000E+000	-2.83980E-001	0.00000E+000	7	...........	0
	219	22	-2.80992E-001	-2.27510E-006	0.00000E+000	-2.80980E-001	0.00000E+000	7	...........	0
	222	22.3	-2.77989E-001	-1.91366E-006	0.00000E+000	-2.77979E-001	0.00000E+000	7	...........	0
	225	22.6	-2.74986E-001	-2.54684E-006	0.00000E+000	-2.74979E-001	0.00000E+000	7	...........	0
	228	22.9	-2.72083E-001	-2.01103E-006	0.00000E+000	-2.71979E-001	0.00000E+000	7	...........	0
	231	23.2	-2.69180E-001	-1.97368E-006	0.00000E+000	-2.68979E-001	0.00000E+000	7	...........	0
	234	23.5	-2.66077E-001	-1.55823E-006	0.00000E+000	-2.65979E-001	0.00000E+000	7	...........	0
	237	23.8	-2.63174E-001	-1.73328E-006	0.00000E+000	-2.62979E-001	0.00000E+000	7	...........	0
	240	24.1	-2.60071E-001	-1.63392E-006	0.00000E+000	-2.59979E-001	0.00000E+000	7	...........	0
	243	24.4	-2.57168E-001	-1.14445E-006	0.00000E+000	-2.56979E-001	0.00000E+000	7	...........	0
	246	24.7	-2.53965E-001	-1.12345E-006	0.00000E+000	-2.53978E-001	0.00000E+000	7	...........	0
	249	25	-2.51062E-001	-1.08810E-006	0.00000E+000	-2.50978E-001	0.00000E+000	7	...........	0
	252	25.3	-2.47959E-001	-9.36730E-007	0.00000E+000	-2.47978E-001	0.00000E+000	7	...........	0
	255	25.6	-2.45056E-001	-1.25849E-006	0.00000E+000	-2.44978E-001	0.00000E+000	7	...........	0
	258	25.9	-2.41943E-001	-9.75407E-007	0.00000E+000	-2.41978E-001	0.00000E+000	7	...........	0
	261	26.2	-2.38970E-001	-1.08911E-006	0.00000E+000	-2.38978E-001	0.00000E+000	7	...........	0
	264	26.5	-2.35997E-001	-1.31817E-006	0.00000E+000	-2.35978E-001	0.00000E+000	7	...........	0
	267	26.8	-2.32984E-001	-1.61125E-006	0.00000E+000	-2.32978E-001	0.00000E+000	7	...........	0
	270	27.1	-2.29981E-001	-2.30677E-006	0.00000E+000	-2.29977E-001	0.00000E+000	7	...........	0
	273	27.4	-2.26958E-001	-1.78063E-006	0.00000E+000	-2.26977E-001	0.00000E+000	7	...........	0
	276	27.7	-2.23965E-001	-1.88932E-006	0.00000E+000	-2.23977E-001	0.00000E+000	7	...........	0
	279	28	-2.20962E-001	-1.94801E-006	0.00000E+000	-2.20977E-001	0.00000E+000	7	...........	0
	282	28.3	-2.17959E-001	-1.77429E-006	0.00000E+000	-2.17977E-001	0.00000E+000	7	...........	0
	285	28.6	-2.15066E-001	-2.04070E-006	0.00000E+000	-2.14977E-001	0.00000E+000	7	...........	0
	288	28.9	-2.11983E-001	-1.83498E-006	0.00000E+000	-2.11977E-001	0.00000E+000	7	...........	0
	291	29.2	-2.08980E-001	-1.50655E-006	0.00000E+000	-2.08977E-001	0.00000E+000	7	...........	0
	294	29.5	-2.05997E-001	-7.29340E-007	0.00000E+000	-2.05976E-001	0.00000E+000	7	...........	0
	297	29.8	-2.02984E-001	-1.21681E-006	0.00000E+000	-2.02976E-001	0.00000E+000	7	...........	0
	300	30.1	-1.99971E-001	-1.41353E-006	0.00000E+000	-1.99976E-001	0.00000E+000	7	...........	0
	303	30.4	-1.96998E-001	-1.18880E-006	0.00000E+000	-1.96976E-001	0.00000E+000	7	...........	0
	306	30.7	-1.94005E-001	-1.25715E-006	0.00000E+000	-1.93976E-001	0.00000E+000	7	...........	0
	309	31	-1.90952E-001	-1.08644E-006	0.00000E+000	-1.90976E-001	0.00000E+000	7	...........	0
	312	31.3	-1.87990E-001	-7.94358E-007	0.00000E+000	-1.87976E-001	0.00000E+000	7	...........	0
	315	31.6	-1.85017E-001	-1.42353E-006	0.00000E+000	-1.84976E-001	0.00000E+000	7	...........	0
	318	31.9	-1.82004E-001	-1.16279E-006	0.00000E+000	-1.81975E-001	0.00000E+000	7	...........	0
	321	32.2	-1.79011E-001	-1.28749E-006	0.00000E+000	-1.78975E-001	0.00000E+000	7	...........	0
	324	32.5	-1.76028E-001	-8.63043E-007	0.00000E+000	-1.75975E-001	0.00000E+000	7	...........	0
	327	32.8	-1.73015E-001	-7.58014E-007	0.00000E+000	-1.72975E-001	0.00000E+000	7	...........	0
	330	33.1	-1.70002E-001	-4.55264E-007	0.00000E+000	-1.69975E-001	0.00000E+000	7	...........	0
	333	33.4	-1.67049E-001	-6.04972E-007	0.00000E+000	-1.67025E-001	0.00000E+000	7	...........	0
	336	33.7	-1.64076E-001	-3.03889E-007	0.00000E+000	-1.64025E-001	0.00000E+000	7	...........	0
	339	34	-1.61093E-001	1.47235E-007	0.00000E+000	-1.61025E-001	0.00000E+000	7	...........	0
	342	34.3	-1.58090E-001	3.68295E-007	0.00000E+000	-1.58025E-001	0.00000E+000	7	...........	0
	345	34.6	-1.55057E-001	-1.47180E-007	0.00000E+000	-1.55024E-001	0.00000E+000	7	...........	0
	348	34.9	-1.52094E-001	-4.48183E-008	0.00000E+000	-1.52024E-001	0.00000E+000	7	...........	0
	351	35.2	-1.49071E-001	8.75514E-008	0.00000E+000	-1.49024E-001	0.00000E+000	7	...........	0
	354	35.5	-1.46088E-001	-4.71602E-007	0.00000E+000	-1.46024E-001	0.00000E+000	7	...........	0
	357	35.8	-1.43055E-001	-2.55876E-007	0.00000E+000	-1.43024E-001	0.00000E+000	7	...........	0
	360	36.1	-1.40072E-001	1.45234E-007	0.00000E+000	-1.40024E-001	0.00000E+000	7	...........	0
	363	36.4	-1.37079E-001	4.63321E-007	0.00000E+000	-1.37024E-001	0.00000E+000	7	...........	0
	366	36.7	-1.34086E-001	-6.80781E-009	0.00000E+000	-1.34024E-001	0.00000E+000	7	...........	0
	369	37	-1.31063E-001	-2.80883E-007	0.00000E+000	-1.31023E-001	0.00000E+000	7	...........	0
	372	37.3	-1.28080E-001	-1.57849E-007	0.00000E+000	-1.28023E-001	0.00000E+000	7	...........	0
	375	37.6	-1.25067E-001	-1.51514E-007	0.00000E+000	-1.25023E-001	0.00000E+000	7	...........	0
	378	37.9	-1.22094E-001	-6.94917E-008	0.00000E+000	-1.22023E-001	0.00000E+000	7	...........	0
	381	38.2	-1.19081E-001	2.28590E-007	0.00000E+000	-1.19023E-001	0.00000E+000	7	...........	0
	384	38.5	-1.16048E-001	1.59238E-007	0.00000E+000	-1.16023E-001	0.00000E+000	7	...........	0
	387	38.8	-1.13095E-001	1.57904E-007	0.00000E+000	-1.13023E-001	0.00000E+000	7	...........	0
	390	39.1	-1.10082E-001	7.86077E-007	0.00000E+000	-1.10023E-001	0.00000E+000	7	...........	0
	393	39.4	-1.07089E-001	6.34035E-007	0.00000E+000	-1.07022E-001	0.00000E+000	7	...........	0
	396	39.7	-1.04076E-001	4.52318E-007	0.00000E+000	-1.04022E-001	0.00000E+000	7	...........	0
	399	40	-1.01163E-001	1.10483E-006	0.00000E+000	-1.01022E-001	0.00000E+000	7	...........	0
	402	40.3	-9.81801E-002	9.20780E-007	0.00000E+000	-9.80221E-002	0.00000E+000	7	...........	0
	405	40.6	-9.51070E-002	6.38036E-007	0.00000E+000	-9.50219E-002	0.00000E+000	7	...........	0
	408	40.9	-9.21141E-002	8.80436E-007	0.00000E+000	-9.20218E-002	0.00000E+000	7	...........	0
	411	41.2	-8.91211E-002	1.21753E-006	0.00000E+000	-8.90217E-002	0.00000E+000	7	...........	0
	414	41.5	-8.61381E-002	9.22114E-007	0.00000E+000	-8.60216E-002	0.00000E+000	7	...........	0
	417	41.8	-8.31251E-002	1.09116E-006	0.00000E+000	-8.30214E-002	0.00000E+000	7	...........	0
	420	42.1	-8.01221E-002	1.80102E-006	0.00000E+000	-8.00213E-002	0.00000E+000	7	...........	0
	423	42.4	-7.71392E-002	2.69994E-006	0.00000E+000	-7.70212E-002	0.00000E+000	7	...........	0
	426	42.7	-7.41262E-002	3.56051E-006	0.00000E+000	-7.40211E-002	0.00000E+000	7	...........	0
	429	43	-7.11332E-002	3.82158E-006	0.00000E+000	-7.10210E-002	0.00000E+000	7	...........	0
	432	43.3	-6.81302E-002	4.22502E-006	0.00000E+000	-6.80208E-002	0.00000E+000	7	...........	0
	435	43.6	-6.50972E-002	3.55317E-006	0.00000E+000	-6.50207E-002	0.00000E+000	7	...........	0
	438	43.9	-6.21142E-002	4.03597E-006	0.00000E+000	-6.20206E-002	0.00000E+000	7	...........	0
	441	44.2	-5.91012E-002	4.76917E-006	0.00000E+000	-5.90205E-002	0.00000E+000	7	...........	0
	444	44.5	-5.61082E-002	5.18295E-006	0.00000E+000	-5.60203E-002	0.00000E+000	7	...........	0
	447	44.8	-5.31153E-002	4.57545E-006	0.00000E+000	-5.30202E-002	0.00000E+000	7	...........	0
	450	45.1	-5.01323E-002	5.48270E-006	0.00000E+000	-5.00201E-002	0.00000E+000	7	...........	0
	453	45.4	-4.71193E-002	5.08259E-006	0.00000E+000	-4.70200E-002	0.00000E+000	7	...........	0
	456	45.7	-4.41263E-002	5.86147E-006	0.00000E+000	-4.40199E-002	0.00000E+000	7	...........	0
	459	46	-4.11233E-002	5.05392E-006	0.00000E+000	-4.10197E-002	0.00000E+000	7	...........	0
	462	46.3	-3.80703E-002	5.12360E-006	0.00000E+000	-3.80196E-002	0.00000E+000	7	...........	0
	465	46.6	-3.50973E-002	5.26731E-006	0.00000E+000	-3.50195E-002	0.00000E+000	7	...........	0
	468	46.9	-3.21144E-002	4.81052E-006	0.00000E+000	-3.20194E-002	0.00000E+000	7	...........	0
	471	47.2	-2.90913E-002	6.21990E-006	0.00000E+000	-2.90192E-002	0.00000E+000	7	...........	0
	474	47.5	-2.61184E-002	5.82213E-006	0.00000E+000	-2.60191E-002	0.00000E+000	7	...........	0
	477	47.8	-2.30561E-002	6.06419E-006	0.00000E+000	-2.30190E-002	0.00000E+000	7	...........	0
	480	48.1	-2.00541E-002	6.04219E-006	0.00000E+000	-2.00189E-002	0.00000E+000	7	...........	0
	483	48.4	-1.70882E-002	5.76211E-006	0.00000E+000	-1.70187E-002	0.00000E+000	7	...........	0
	486	48.7	-1.40401E-002	7.13615E-006	0.00000E+000	-1.40186E-002	0.00000E+000	7	...........	0
	489	49	-1.10852E-002	6.58100E-006	0.00000E+000	-1.10185E-002	0.00000E+000	7	...........	0
	492	49.3	-8.06417E-003	6.62568E-006	0.00000E+000	-8.01838E-003	0.00000E+000	7	...........	0
	495	49.6	-5.07220E-003	6.59067E-006	0.00000E+000	-5.01826E-003	0.00000E+000	7	...........	0
	498	49.9	-2.08322E-003	6.43129E-006	0.00000E+000	-2.01814E-003	0.00000E+000	7	...........	0
	501	50.2	9.65814E-004	6.58300E-006	0.00000E+000	9.81987E-004	0.00000E+000	7	...........	0
	504	50.5	3.92776E-003	6.39362E-006	0.00000E+000	3.98211E-003	0.00000E+000	7	...........	0
	507	50.8	6.92575E-003	5.83880E-006	0.00000E+000	6.98223E-003	0.00000E+000	7	...........	0
	510	51.1	9.90571E-003	5.90582E-006	0.00000E+000	9.98235E-003	0.00000E+000	7	...........	0
	513	51.4	1.29097E-002	6.40662E-006	0.00000E+000	1.29825E-002	0.00000E+000	7	...........	0
	516	51.7	1.58847E-002	6.14622E-006	0.00000E+000	1.59826E-002	0.00000E+000	7	...........	0
	519	52	1.88746E-002	5.71143E-006	0.00000E+000	1.89827E-002	0.00000E+000	7	...........	0
	522	52.3	2.19117E-002	7.07447E-006	0.00000E+000	2.19828E-002	0.00000E+000	7	...........	0
	525	52.6	2.49056E-002	6.76339E-006	0.00000E+000	2.49830E-002	0.00000E+000	7	...........	0
	528	52.9	2.79454E-002	6.38095E-006	0.00000E+000	2.79831E-002	0.00000E+000	7	...........	0
	531	53.2	3.08984E-002	7.33488E-006	0.00000E+000	3.09832E-002	0.00000E+000	7	...........	0
	534	53.5	3.39214E-002	6.34794E-006	0.00000E+000	3.39833E-002	0.00000E+000	7	...........	0
	537	53.8	3.69244E-002	5.66508E-006	0.00000E+000	3.69835E-002	0.00000E+000	7	...........	0
	540	54.1	3.99574E-002	5.62907E-006	0.00000E+000	3.99836E-002	0.00000E+000	7	...........	0
	543	54.4	4.29604E-002	6.49231E-006	0.00000E+000	4.29837E-002	0.00000E+000	7	...........	0
	546	54.7	4.59734E-002	5.36967E-006	0.00000E+000	4.59838E-002	0.00000E+000	7	...........	0
	549	55	4.89664E-002	6.25291E-006	0.00000E+000	4.89840E-002	0.00000E+000	7	...........	0
	552	55.3	5.19593E-002	6.10354E-006	0.00000E+000	5.19841E-002	0.00000E+000	7	...........	0
	555	55.6	5.49723E-002	6.12288E-006	0.00000E+000	5.49842E-002	0.00000E+000	7	...........	0
	558	55.9	5.79953E-002	6.56967E-006	0.00000E+000	5.79843E-002	0.00000E+000	7	...........	0
	561	56.2	6.09583E-002	7.14116E-006	0.00000E+000	6.09844E-002	0.00000E+000	7	...........	0
	564	56.5	6.39713E-002	7.68464E-006	0.00000E+000	6.39846E-002	0.00000E+000	7	...........	0
	567	56.8	6.70143E-002	6.82440E-006	0.00000E+000	6.69847E-002	0.00000E+000	7	...........	0
	570	57.1	6.99673E-002	4.60179E-006	0.00000E+000	6.99848E-002	0.00000E+000	7	...........	0
	573	57.4	7.29803E-002	6.01018E-006	0.00000E+000	7.29849E-002	0.00000E+000	7	...........	0
	576	57.7	7.59732E-002	5.21096E-006	0.00000E+000	7.59851E-002	0.00000E+000	7	...........	0
	579	58	7.90063E-002	2.45220E-006	0.00000E+000	7.89852E-002	0.00000E+000	7	...........	0
	582	58.3	8.19792E-002	3.03169E-006	0.00000E+000	8.19853E-002	0.00000E+000	7	...........	0
	585	58.6	8.49522E-002	1.48860E-006	0.00000E+000	8.49854E-002	0.00000E+000	7	...........	0
	588	58.9	8.79852E-002	9.65793E-007	0.00000E+000	8.79855E-002	0.00000E+000	7	...........	0
	591	59.2	9.09782E-002	2.34551E-006	0.00000E+000	9.09857E-002	0.00000E+000	7	...........	0
	594	59.5	9.39812E-002	3.76056E-006	0.00000E+000	9.39858E-002	0.00000E+000	7	...........	0
	597	59.8	9.70042E-002	2.62358E-006	0.00000E+000	9.69859E-002	0.00000E+000	7	...........	0
	600	60.1	9.99371E-002	1.25154E-006	0.00000E+000	9.99860E-002	0.00000E+000	7	...........	0
	603	60.4	1.02930E-001	2.47587E-006	0.00000E+000	1.02986E-001	0.00000E+000	7	...........	0
	606	60.7	1.05963E-001	1.05382E-006	0.00000E+000	1.05986E-001	0.00000E+000	7	...........	0
	609	61	1.08956E-001	9.30116E-007	0.00000E+000	1.08986E-001	0.00000E+000	7	...........	0
	612	61.3	1.11939E-001	1.59463E-006	0.00000E+000	1.11987E-001	0.00000E+000	7	...........	0
	615	61.6	1.14932E-001	2.09744E-006	0.00000E+000	1.14987E-001	0.00000E+000	7	...........	0
	618	61.9	1.17915E-001	4.80418E-006	0.00000E+000	1.17987E-001	0.00000E+000	7	...........	0
	621	62.2	1.20868E-001	4.99423E-006	0.00000E+000	1.20987E-001	0.00000E+000	7	...........	0
	624	62.5	1.23941E-001	7.10581E-006	0.00000E+000	1.23987E-001	0.00000E+000	7	...........	0
	627	62.8	1.26884E-001	6.18856E-006	0.00000E+000	1.26987E-001	0.00000E+000	7	...........	0
	630	63.1	1.29917E-001	7.52426E-006	0.00000E+000	1.29987E-001	0.00000E+000	7	...........	0
	633	63.4	1.32970E-001	7.39189E-006	0.00000E+000	1.32987E-001	0.00000E+000	7	...........	0
	636	63.7	1.35923E-001	8.35949E-006	0.00000E+000	1.35988E-001	0.00000E+000	7	...........	0
	639	64	1.38966E-001	8.29847E-006	0.00000E+000	1.38988E-001	0.00000E+000	7	...........	0
	642	64.3	1.41959E-001	7.07514E-006	0.00000E+000	1.41988E-001	0.00000E+000	7	...........	0
	645	64.6	1.44962E-001	8.77861E-006	0.00000E+000	1.44988E-001	0.00000E+000	7	...........	0
	648	64.9	1.47955E-001	8.81328E-006	0.00000E+000	1.47988E-001	0.00000E+000	7	...........	0
	651	65.2	1.50948E-001	8.79228E-006	0.00000E+000	1.50988E-001	0.00000E+000	7	...........	0
	654	65.5	1.53871E-001	8.79861E-006	0.00000E+000	1.53988E-001	0.00000E+000	7	...........	0
	657	65.8	1.56934E-001	1.00950E-005	0.00000E+000	1.56988E-001	0.00000E+000	7	.....h.....	0
	660	66.1	1.59907E-001	9.32942E-006	0.00000E+000	1.59988E-001	0.00000E+000	7	...........	0
	663	66.4	1.62890E-001	8.73159E-006	0.00000E+000	1.62989E-001	0.00000E+000	7	...........	0
	666	66.7	1.65893E-001	7.81201E-006	0.00000E+000	1.65989E-001	0.00000E+000	7	...........	0
	669	67	1.68896E-001	7.16116E-006	0.00000E+000	1.68989E-001	0.00000E+000	7	...........	0
	672	67.3	1.71929E-001	8.78527E-006	0.00000E+000	1.71989E-001	0.00000E+000	7	...........	0
	675	67.6	1.74872E-001	8.54921E-006	0.00000E+000	1.74989E-001	0.00000E+000	7	...........	0
	678	67.9	1.77895E-001	8.74393E-006	0.00000E+000	1.77989E-001	0.00000E+000	7	...........	0
	681	68.2	1.80898E-001	6.31238E-006	0.00000E+000	1.80989E-001	0.00000E+000	8	...........	0
	684	68.5	1.83901E-001	7.69231E-006	0.00000E+000	1.83989E-001	0.00000E+000	7	...........	0
	687	68.8	1.86924E-001	1.02930E-005	0.00000E+000	1.86990E-001	0.00000E+000	7	.....h.....	0
	690	69.1	1.89987E-001	1.04017E-005	0.00000E+000	1.89990E-001	0.00000E+000	7	.....h.....	0
	693	69.4	1.92910E-001	1.02260E-005	0.00000E+000	1.92990E-001	0.00000E+000	7	...........	0
	696	69.7	1.95913E-001	8.67658E-006	0.00000E+000	1.95990E-001	0.00000E+000	7	...........	0
	699	70	1.98916E-001	1.08705E-005	0.00000E+000	1.98990E-001	0.00000E+000	7	....ih.....	0
	702	70.3	2.01879E-001	9.70119E-006	0.00000E+000	2.01990E-001	0.00000E+000	7	...........	0
	705	70.6	2.04882E-001	1.09265E-005	0.00000E+000	2.04990E-001	0.00000E+000	7	....ih..i..	0
	708	70.9	2.07854E-001	1.09265E-005	0.00000E+000	2.07990E-001	0.00000E+000	7	....ih..i..	0
	711	71.2	2.10827E-001	1.09265E-005	0.00000E+000	2.10991E-001	0.00000E+000	7	....ih..i..	0
	714	71.5	2.13880E-001	1.09265E-005	0.00000E+000	2.13991E-001	0.00000E+000	7	....ih..i..	0
	717	71.8	2.16843E-001	1.09265E-005	0.00000E+000	2.16991E-001	0.00000E+000	7	....ih..i..	0
	720	72.1	2.19846E-001	1.09265E-005	0.00000E+000	2.19991E-001	0.00000E+000	7	....ih..i..	0
	723	72.4	2.22829E-001	1.09265E-005	0.00000E+000	2.22991E-001	0.00000E+000	7	....ih..i..	0
	726	72.7	2.25842E-001	1.01240E-005	0.00000E+000	2.25991E-001	0.00000E+000	7	....ih.....	0
	729	73	2.28825E-001	1.05191E-005	0.00000E+000	2.28991E-001	0.00000E+000	7	....ih.....	0
	732	73.3	2.31808E-001	1.07935E-005	0.00000E+000	2.31991E-001	0.00000E+000	7	....ih.....	0
	735	73.6	2.34911E-001	9.24925E-006	0.00000E+000	2.34992E-001	0.00000E+000	8	...........	0
	738	73.9	2.37924E-001	1.08394E-005	0.00000E+000	2.37992E-001	0.00000E+000	8	...........	0
	741	74.2	2.40877E-001	1.18561E-005	0.00000E+000	2.40992E-001	0.00000E+000	8	...........	0
	744	74.5	2.43900E-001	1.02893E-005	0.00000E+000	2.43992E-001	0.00000E+000	8	...........	0
	747	74.8	2.46903E-001	1.04827E-005	0.00000E+000	2.46992E-001	0.00000E+000	8	...........	0
	750	75.1	2.49886E-001	1.10394E-005	0.00000E+000	2.49992E-001	0.00000E+000	8	...........	0
	753	75.4	2.52859E-001	1.05527E-005	0.00000E+000	2.52992E-001	0.00000E+000	8	...........	0
	756	75.7	2.55842E-001	9.46594E-006	0.00000E+000	2.55992E-001	0.00000E+000	8	...........	0
	759	76	2.58845E-001	9.22925E-006	0.00000E+000	2.58993E-001	0.00000E+000	8	...........	0
	762	76.3	2.61888E-001	9.77929E-006	0.00000E+000	2.61993E-001	0.00000E+000	8	...........	0
	765	76.6	2.64811E-001	9.53261E-006	0.00000E+000	2.64993E-001	0.00000E+000	8	...........	0
	768	76.9	2.67955E-001	1.20128E-005	0.00000E+000	2.67993E-001	0.00000E+000	8	...........	0
	771	77.2	2.71058E-001	1.12661E-005	0.00000E+000	2.70993E-001	0.00000E+000	8	...........	0
	774	77.5	2.74061E-001	9.05591E-006	0.00000E+000	2.73993E-001	0.00000E+000	8	...........	0
	777	77.8	2.76964E-001	8.04917E-006	0.00000E+000	2.76993E-001	0.00000E+000	8	...........	0
	780	78.1	2.79967E-001	8.24585E-006	0.00000E+000	2.79993E-001	0.00000E+000	8	...........	0
	783	78.4	2.83070E-001	8.77922E-006	0.00000E+000	2.82993E-001	0.00000E+000	8	...........	0
	786	78.7	2.85973E-001	1.28795E-005	0.00000E+000	2.85994E-001	0.00000E+000	8	...........	0
	789	79	2.89076E-001	1.37996E-005	0.00000E+000	2.88994E-001	0.00000E+000	8	...........	0
	792	79.3	2.92079E-001	1.09265E-005	0.00000E+000	2.91994E-001	0.00000E+000	7	....ih..i..	0
	795	79.6	2.94982E-001	1.09265E-005	0.00000E+000	2.94994E-001	0.00000E+000	7	....ih..i..	0
	798	79.9	2.97985E-001	1.09265E-005	0.00000E+000	2.97994E-001	0.00000E+000	7	....ih..i..	0
	801	80.2	3.01088E-001	1.09265E-005	0.00000E+000	3.00994E-001	0.00000E+000	7	....ih..i..	0
	804	80.5	3.04091E-001	1.09265E-005	0.00000E+000	3.03994E-001	0.00000E+000	7	....ih..i..	0
	807	80.8	3.07094E-001	1.09265E-005	0.00000E+000	3.06994E-001	0.00000E+000	7	....ih..i..	0
	810	81.1	3.09997E-001	1.09265E-005	0.00000E+000	3.09995E-001	0.00000E+000	7	....ih..i..	0
	813	81.4	3.13100E-001	1.09265E-005	0.00000E+000	3.12995E-001	0.00000E+000	7	....ih..i..	0
	816	81.7	3.16103E-001	1.09265E-005	0.00000E+000	3.15995E-001	0.00000E+000	7	....ih..i..	0
	819	82	3.19106E-001	1.88333E-005	0.00000E+000	3.18995E-001	0.00000E+000	8	...........	0
	822	82.3	3.22009E-001	1.90499E-005	0.00000E+000	3.21995E-001	0.00000E+000	8	...........	0
	825	82.6	3.25012E-001	2.08467E-005	0.00000E+000	3.24995E-001	0.00000E+000	8	...........	0
	828	82.9	3.28015E-001	2.19835E-005	0.00000E+000	3.27995E-001	0.00000E+000	8	...........	0
	831	83.2	3.31018E-001	1.80199E-005	0.00000E+000	3.30995E-001	0.00000E+000	8	...........	0
	834	83.5	3.34121E-001	1.32195E-005	0.00000E+000	3.33996E-001	0.00000E+000	8	...........	0
	837	83.8	3.37024E-001	1.15394E-005	0.00000E+000	3.36996E-001	0.00000E+000	8	...........	0
	840	84.1	3.40027E-001	1.18394E-005	0.00000E+000	3.39996E-001	0.00000E+000	8	...........	0
	843	84.4	3.43130E-001	1.18994E-005	0.00000E+000	3.42996E-001	0.00000E+000	8	...........	0
	846	84.7	3.46033E-001	1.14361E-005	0.00000E+000	3.45996E-001	0.00000E+000	8	...........	0
	849	85	3.49136E-001	1.32829E-005	0.00000E+000	3.48996E-001	0.00000E+000	8	...........	0
	852	85.3	3.52139E-001	1.31295E-005	0.00000E+000	3.51996E-001	0.00000E+000	8	...........	0
	855	85.6	3.55142E-001	1.29995E-005	0.00000E+000	3.54996E-001	0.00000E+000	8	...........	0
	858	85.9	3.58145E-001	1.19261E-005	0.00000E+000	3.57997E-001	0.00000E+000	8	...........	0
	861	86.2	3.61047E-001	1.33995E-005	0.00000E+000	3.60997E-001	0.00000E+000	8	...........	0
	864	86.5	3.64151E-001	1.58164E-005	0.00000E+000	3.63997E-001	0.00000E+000	8	...........	0
	867	86.8	3.67053E-001	1.73432E-005	0.00000E+000	3.66997E-001	0.00000E+000	8	...........	0
	870	87.1	3.70056E-001	1.95266E-005	0.00000E+000	3.69997E-001	0.00000E+000	8	...........	0
	873	87.4	3.72959E-001	1.72131E-005	0.00000E+000	3.72997E-001	0.00000E+000	8	...........	0
	876	87.7	3.76162E-001	2.00067E-005	0.00000E+000	3.75997E-001	0.00000E+000	8	...........	0
	879	88	3.79166E-001	2.46303E-005	0.00000E+000	3.78997E-001	0.00000E+000	8	...........	0
	882	88.3	3.82068E-001	2.81772E-005	0.00000E+000	3.81998E-001	0.00000E+000	8	...........	0
	885	88.6	3.85071E-001	3.26809E-005	0.00000E+000	3.84998E-001	0.00000E+000	8	...........	0
	888	88.9	3.88074E-001	2.83639E-005	0.00000E+000	3.87998E-001	0.00000E+000	8	...........	0
	891	89.2	3.91077E-001	3.15908E-005	0.00000E+000	3.90998E-001	0.00000E+000	8	...........	0
	894	89.5	3.94080E-001	3.57211E-005	0.00000E+000	3.93998E-001	0.00000E+000	8	...........	0
	897	89.8	3.97183E-001	3.68912E-005	0.00000E+000	3.96998E-001	0.00000E+000	8	...........	0
	900	90.1	4.00186E-001	3.69545E-005	0.00000E+000	3.99998E-001	0.00000E+000	8	...........	0
	903	90.4	4.03089E-001	3.40076E-005	0.00000E+000	4.02998E-001	0.00000E+000	8	...........	0
	906	90.7	4.06092E-001	3.43510E-005	0.00000E+000	4.05999E-001	0.00000E+000	8	...........	0
	909	91	4.09095E-001	3.01107E-005	0.00000E+000	4.08999E-001	0.00000E+000	8	...........	0
	912	91.3	4.12098E-001	2.75772E-005	0.00000E+000	4.11999E-001	0.00000E+000	8	...........	0
	915	91.6	4.15001E-001	2.82272E-005	0.00000E+000	4.14999E-001	0.00000E+000	8	...........	0
	918	91.9	4.18104E-001	2.83173E-005	0.00000E+000	4.17999E-001	0.00000E+000	8	...........	0
	921	92.2	4.21007E-001	2.95840E-005	0.00000E+000	4.20999E-001	0.00000E+000	8	...........	0
	924	92.5	4.24210E-001	3.03574E-005	0.00000E+000	4.23999E-001	0.00000E+000	8	...........	0
	927	92.8	4.27113E-001	3.18608E-005	0.00000E+000	4.26999E-001	0.00000E+000	8	...........	0
	930	93.1	4.30116E-001	3.33309E-005	0.00000E+000	4.30000E-001	0.00000E+000	8	...........	0
	933	93.4	4.33019E-001	3.40543E-005	0.00000E+000	4.33000E-001	0.00000E+000	8	...........	0
	936	93.7	4.36122E-001	3.38176E-005	0.00000E+000	4.36000E-001	0.00000E+000	8	...........	0
	939	94	4.39125E-001	3.58511E-005	0.00000E+000	4.39000E-001	0.00000E+000	8	...........	0
	942	94.3	4.42128E-001	3.75779E-005	0.00000E+000	4.42000E-001	0.00000E+000	8	...........	0
	945	94.6	4.45031E-001	3.83880E-005	0.00000E+000	4.45000E-001	0.00000E+000	8	...........	0
	948	94.9	4.48134E-001	3.82679E-005	0.00000E+000	4.48000E-001	0.00000E+000	8	...........	0
	951	95.2	4.51237E-001	3.99047E-005	0.00000E+000	4.51000E-001	0.00000E+000	8	...........	0
	954	95.5	4.54040E-001	4.18615E-005	0.00000E+000	4.54001E-001	0.00000E+000	8	...........	0
	957	95.8	4.57143E-001	4.17515E-005	0.00000E+000	4.57001E-001	0.00000E+000	8	...........	0
	960	96.1	4.60046E-001	4.72086E-005	0.00000E+000	4.60001E-001	0.00000E+000	8	...........	0
	963	96.4	4.63049E-001	4.86420E-005	0.00000E+000	4.63001E-001	0.00000E+000	8	...........	0
	966	96.7	4.66052E-001	4.70119E-005	0.00000E+000	4.66001E-001	0.00000E+000	8	...........	0
	969	97	4.69155E-001	4.76286E-005	0.00000E+000	4.69001E-001	0.00000E+000	8	...........	0
	972	97.3	4.72058E-001	4.86253E-005	0.00000E+000	4.72001E-001	0.00000E+000	8	...........	0
	975	97.6	4.75161E-001	5.11288E-005	0.00000E+000	4.75001E-001	0.00000E+000	8	...........	0
	978	97.9	4.78064E-001	5.30456E-005	0.00000E+000	4.78001E-001	0.00000E+000	8	...........	0
	981	98.2	4.81067E-001	5.54425E-005	0.00000E+000	4.81002E-001	0.00000E+000	8	...........	0
	984	98.5	4.83970E-001	6.03362E-005	0.00000E+000	4.84002E-001	0.00000E+000	8	...........	0
	987	98.8	4.87173E-001	6.38964E-005	0.00000E+000	4.87002E-001	0.00000E+000	8	...........	0
	990	99.1	4.90076E-001	6.43764E-005	0.00000E+000	4.90002E-001	0.00000E+000	8	...........	0
	993	99.4	4.93079E-001	6.41464E-005	0.00000E+000	4.93002E-001	0.00000E+000	8	...........	0
	996	99.7	4.96182E-001	6.99635E-005	0.00000E+000	4.96002E-001	0.00000E+000	8	...........	0
	999	100	4.99085E-001	7.32604E-005	0.00000E+000	4.99002E-001	0.00000E+000	8	...........	0
	1002	100.3	5.01988E-001	7.41238E-005	0.00000E+000	5.02002E-001	0.00000E+000	8	...........	0
	1005	100.6	5.05091E-001	7.30237E-005	0.00000E+000	5.05003E-001	0.00000E+000	8	...........	0
	1008	100.9	5.08094E-001	7.69573E-005	0.00000E+000	5.08003E-001	0.00000E+000	8	...........	0
	1011	101.2	5.11097E-001	8.03042E-005	0.00000E+000	5.11003E-001	0.00000E+000	8	...........	0
	1014	101.5	5.14100E-001	7.59606E-005	0.00000E+000	5.14003E-001	0.00000E+000	8	...........	0
	1017	101.8	5.17103E-001	8.00255E-005	0.00000E+000	5.17003E-001	0.00000E+000	9	...........	0
	1020	102.1	5.20106E-001	8.43538E-005	0.00000E+000	5.20003E-001	0.00000E+000	9	...........	0
	1023	102.4	5.23009E-001	8.29554E-005	0.00000E+000	5.23003E-001	0.00000E+000	9	...........	0
	1026	102.7	5.26012E-001	8.43871E-005	0.00000E+000	5.26003E-001	0.00000E+000	9	...........	0
	1029	103	5.29115E-001	8.54858E-005	0.00000E+000	5.29004E-001	0.00000E+000	9	...........	0
	1032	103.3	5.32218E-001	9.05132E-005	0.00000E+000	5.32004E-001	0.00000E+000	9	...........	0
	1035	103.6	5.35121E-001	9.14787E-005	0.00000E+000	5.35004E-001	0.00000E+000	9	...........	0
	1038	103.9	5.38224E-001	9.15120E-005	0.00000E+000	5.38004E-001	0.00000E+000	9	...........	0
	1041	104.2	5.41127E-001	9.30103E-005	0.00000E+000	5.41004E-001	0.00000E+000	9	...........	0
	1044	104.5	5.44130E-001	9.78380E-005	0.00000E+000	5.44004E-001	0.00000E+000	9	...........	0
	1047	104.8	5.47033E-001	1.03132E-004	0.00000E+000	5.47004E-001	0.00000E+000	9	...........	0
	1050	105.1	5.50136E-001	1.15317E-004	0.00000E+000	5.50004E-001	0.00000E+000	9	...........	0
	1053	105.4	5.53139E-001	1.17681E-004	0.00000E+000	5.53005E-001	0.00000E+000	9	...........	0
	1056	105.7	5.56042E-001	1.22143E-004	0.00000E+000	5.56005E-001	0.00000E+000	9	...........	0
	1059	106	5.59145E-001	1.23075E-004	0.00000E+000	5.59005E-001	0.00000E+000	9	...........	0
	1062	106.3	5.62148E-001	1.26571E-004	0.00000E+000	5.62005E-001	0.00000E+000	9	...........	0
	1065	106.6	5.65051E-001	1.27070E-004	0.00000E+000	5.65005E-001	0.00000E+000	9	...........	0
	1068	106.9	5.68053E-001	1.31199E-004	0.00000E+000	5.68005E-001	0.00000E+000	9	...........	0
	1071	107.2	5.71056E-001	1.34162E-004	0.00000E+000	5.71005E-001	0.00000E+000	9	...........	0
	1074	107.5	5.74160E-001	1.37158E-004	0.00000E+000	5.74005E-001	0.00000E+000	9	...........	0
	1077	107.8	5.77163E-001	1.41420E-004	0.00000E+000	5.77006E-001	0.00000E+000	9	...........	0
	1080	108.1	5.80166E-001	1.42552E-004	0.00000E+000	5.80006E-001	0.00000E+000	9	...........	0
	1083	108.4	5.83068E-001	1.46880E-004	0.00000E+000	5.83006E-001	0.00000E+000	9	...........	0
	1086	108.7	5.86071E-001	1.47080E-004	0.00000E+000	5.86006E-001	0.00000E+000	9	...........	0
	1089	109	5.89175E-001	1.52274E-004	0.00000E+000	5.89006E-001	0.00000E+000	9	...........	0
	1092	109.3	5.92178E-001	1.50842E-004	0.00000E+000	5.92006E-001	0.00000E+000	9	...........	0
	1095	109.6	5.95080E-001	1.55470E-004	0.00000E+000	5.95006E-001	0.00000E+000	9	...........	0
	1098	109.9	5.98083E-001	1.56869E-004	0.00000E+000	5.98006E-001	0.00000E+000	9	...........	0
	1100	110.1	6.00085E-001	1.59466E-004	0.00000E+000	6.00006E-001	0.00000E+000	9	...........	0