File: LSV ZFO/ZFO_light.DTA
EXPLAIN
TAG	LSV
TITLE	LABEL	Linear Sweep Voltammetry	Test &Identifier
DATE	LABEL	7/5/2024	Date
TIME	LABEL	15:28:08	Time
NOTES	NOTES	1	&Notes...

PSTAT	PSTAT	L3FNano	Potentiostat
VINIT	POTEN	-5.00000E-001	F	&Initial E (V)
VFINAL	POTEN	6.00000E-001	F	&Final E (V)
SCANRATE	QUANT	9.99998E+000	&Scan Rate (mV/s)
STEPSIZE	QUANT	1.00000E+000	St&ep Size (mV)
IMODE	SELECTOR	0	I/E Range &Mode
IRANGE	QUANT	1.00000E+001	&Max Current (mA)
AREA	QUANT	1.00000E+000	Electrode &Area (cm^2)
ELECTRODETYPE	SELECTOR	0	Electrode Type
STRIPPING	TOGGLE	F	Used for Stripping
POLARITY	TOGGLE	F	Signal Polarity
CONDIT	TWOPARAM	F	1.50000E+001	0.00000E+000	Conditionin&g	Time(s)	E(V)
DELAY	TWOPARAM	F	3.00000E+001	0.00000E+000	Init. De&lay	Time(s)	Stab.(mV/s)
EQDELAY	QUANT	5.00000E+000	Equil. &Time (s)
IRCOMP	SELECTOR	0	IRCom&p
PFCOR	QUANT	5.00000E+001	PF Corr. (ohm)
SAMPLINGMODE	SELECTOR	0	Sampling &Mode
EOC	QUANT	0	Open Circuit (V)
PSTATMODEL	IQUANT	48	Pstat Model
PSTATSECTION	LABEL	IFC1000-07082	Pstat Section
PSTATSERIALNO	LABEL	07082	Pstat Serial Number
CTRLMODE	IQUANT	1	Control Mode
IESTAB	IQUANT	2	I/E Stability
CASPEED	IQUANT	2	Control Amp Speed
CONVENTION	IQUANT	1	Current Convention
ICHRANGE	IQUANT	2	Ich Range
ICHRANGEMODE	TOGGLE	F	Ich Auto Range
ICHOFFSETENABLE	TOGGLE	F	Ich Offset Enable
ICHOFFSET	QUANT	0	Ich Offset (V)
ICHFILTER	IQUANT	3	Ich Filter
VCHRANGE	IQUANT	2	Vch Range
VCHRANGEMODE	TOGGLE	T	Vch Auto Range
VCHOFFSETENABLE	TOGGLE	F	Vch Offset Enable
VCHOFFSET	QUANT	0	Vch Offset (V)
VCHFILTER	IQUANT	3	Vch Filter
IERANGELOWERLIMIT	IQUANT	4	I/E Range Lower Limit
IERANGEMODE	TOGGLE	T	I/E AutoRange
IERANGE	IQUANT	11	I/E Range
ACHSELECT	IQUANT	4	Ach Select
CABLEID	IQUANT	14	Cable ID
DCCALDATE	LABEL	7/3/2024	DC Calibration Date
ACCALDATE	LABEL	7/3/2024	AC Calibration Date
FRAMEWORKVERSION	QUANT	6.24	Framework Version
INSTRUMENTVERSION	LABEL	3.28	Instrument Version
CURVE	TABLE	1101
	Pt	T	Vf	Im	Vu	Sig	Ach	IERange	Over	Cycle
	#	s	V vs. Ref.	A	V	V	V	#	bits	#
	0	0.1	-5.00010E-001	1.93704E-006	0.00000E+000	-4.99988E-001	0.00000E+000	11	...........	0
	3	0.4	-4.97007E-001	-1.48150E-006	0.00000E+000	-4.96988E-001	0.00000E+000	8	...........	0
	6	0.7	-4.94104E-001	-1.29416E-006	0.00000E+000	-4.93988E-001	0.00000E+000	7	...........	0
	9	1	-4.91001E-001	-1.12645E-006	0.00000E+000	-4.90988E-001	0.00000E+000	7	...........	0
	12	1.3	-4.87998E-001	-1.02809E-006	0.00000E+000	-4.87988E-001	0.00000E+000	7	...........	0
	15	1.6	-4.84895E-001	-8.76714E-007	0.00000E+000	-4.84988E-001	0.00000E+000	7	...........	0
	18	1.9	-4.81992E-001	-8.00359E-007	0.00000E+000	-4.81988E-001	0.00000E+000	7	...........	0
	21	2.2	-4.78989E-001	-6.78659E-007	0.00000E+000	-4.78988E-001	0.00000E+000	7	...........	0
	24	2.5	-4.75986E-001	-6.05306E-007	0.00000E+000	-4.75987E-001	0.00000E+000	7	...........	0
	27	2.8	-4.72983E-001	-5.29285E-007	0.00000E+000	-4.72987E-001	0.00000E+000	7	...........	0
	30	3.1	-4.69980E-001	-4.86606E-007	0.00000E+000	-4.69987E-001	0.00000E+000	7	...........	0
	33	3.4	-4.67077E-001	-3.66907E-007	0.00000E+000	-4.66987E-001	0.00000E+000	7	...........	0
	36	3.7	-4.63974E-001	-2.88552E-007	0.00000E+000	-4.63987E-001	0.00000E+000	7	...........	0
	39	4	-4.60971E-001	-3.06890E-007	0.00000E+000	-4.60987E-001	0.00000E+000	7	...........	0
	42	4.3	-4.57968E-001	-2.09864E-007	0.00000E+000	-4.57987E-001	0.00000E+000	7	...........	0
	45	4.6	-4.54965E-001	-2.23534E-007	0.00000E+000	-4.54987E-001	0.00000E+000	7	...........	0
	48	4.9	-4.51962E-001	-1.20839E-007	0.00000E+000	-4.51987E-001	0.00000E+000	7	...........	0
	51	5.2	-4.49059E-001	-8.61629E-008	0.00000E+000	-4.48986E-001	0.00000E+000	7	...........	0
	54	5.5	-4.45956E-001	-1.09836E-007	0.00000E+000	-4.45986E-001	0.00000E+000	7	...........	0
	57	5.8	-4.43053E-001	-5.80754E-009	0.00000E+000	-4.42986E-001	0.00000E+000	7	...........	0
	60	6.1	-4.39950E-001	1.31977E-008	0.00000E+000	-4.39986E-001	0.00000E+000	7	...........	0
	63	6.4	-4.37047E-001	3.86179E-009	0.00000E+000	-4.36986E-001	0.00000E+000	7	...........	0
	66	6.7	-4.33944E-001	1.29896E-007	0.00000E+000	-4.33986E-001	0.00000E+000	7	...........	0
	69	7	-4.30941E-001	1.94914E-007	0.00000E+000	-4.30986E-001	0.00000E+000	7	...........	0
	72	7.3	-4.27938E-001	2.07584E-007	0.00000E+000	-4.27986E-001	0.00000E+000	7	...........	0
	75	7.6	-4.25035E-001	2.82938E-007	0.00000E+000	-4.24985E-001	0.00000E+000	7	...........	0
	78	7.9	-4.21932E-001	2.48929E-007	0.00000E+000	-4.21985E-001	0.00000E+000	7	...........	0
	81	8.2	-4.18929E-001	2.85272E-007	0.00000E+000	-4.18985E-001	0.00000E+000	7	...........	0
	84	8.5	-4.16026E-001	3.42288E-007	0.00000E+000	-4.15985E-001	0.00000E+000	7	...........	0
	87	8.8	-4.12923E-001	3.51624E-007	0.00000E+000	-4.12985E-001	0.00000E+000	7	...........	0
	90	9.1	-4.10020E-001	3.42288E-007	0.00000E+000	-4.09985E-001	0.00000E+000	7	...........	0
	93	9.4	-4.07017E-001	4.06639E-007	0.00000E+000	-4.06985E-001	0.00000E+000	7	...........	0
	96	9.7	-4.03914E-001	4.24644E-007	0.00000E+000	-4.03985E-001	0.00000E+000	7	...........	0
	99	10	-4.00911E-001	4.00971E-007	0.00000E+000	-4.00984E-001	0.00000E+000	7	...........	0
	102	10.3	-3.97908E-001	3.95303E-007	0.00000E+000	-3.97984E-001	0.00000E+000	7	...........	0
	105	10.6	-3.95005E-001	4.26645E-007	0.00000E+000	-3.94984E-001	0.00000E+000	7	...........	0
	108	10.9	-3.92002E-001	4.08306E-007	0.00000E+000	-3.91984E-001	0.00000E+000	7	...........	0
	111	11.2	-3.88899E-001	4.10640E-007	0.00000E+000	-3.88984E-001	0.00000E+000	7	...........	0
	114	11.5	-3.85896E-001	4.45650E-007	0.00000E+000	-3.85984E-001	0.00000E+000	7	...........	0
	117	11.8	-3.82893E-001	4.24644E-007	0.00000E+000	-3.82984E-001	0.00000E+000	7	...........	0
	120	12.1	-3.79890E-001	4.82993E-007	0.00000E+000	-3.79984E-001	0.00000E+000	7	...........	0
	123	12.4	-3.76987E-001	5.13002E-007	0.00000E+000	-3.76983E-001	0.00000E+000	7	...........	0
	126	12.7	-3.73884E-001	4.87328E-007	0.00000E+000	-3.73983E-001	0.00000E+000	7	...........	0
	129	13	-3.70981E-001	4.85994E-007	0.00000E+000	-3.70983E-001	0.00000E+000	7	...........	0
	132	13.3	-3.67978E-001	5.58681E-007	0.00000E+000	-3.67983E-001	0.00000E+000	7	...........	0
	135	13.6	-3.64975E-001	5.07000E-007	0.00000E+000	-3.64983E-001	0.00000E+000	7	...........	0
	138	13.9	-3.61872E-001	5.36341E-007	0.00000E+000	-3.61983E-001	0.00000E+000	7	...........	0
	141	14.2	-3.58969E-001	5.46011E-007	0.00000E+000	-3.58983E-001	0.00000E+000	7	...........	0
	144	14.5	-3.55966E-001	4.72324E-007	0.00000E+000	-3.55983E-001	0.00000E+000	7	...........	0
	147	14.8	-3.52963E-001	4.87328E-007	0.00000E+000	-3.52982E-001	0.00000E+000	7	...........	0
	150	15.1	-3.49960E-001	5.36341E-007	0.00000E+000	-3.49982E-001	0.00000E+000	7	...........	0
	153	15.4	-3.46857E-001	5.65016E-007	0.00000E+000	-3.46982E-001	0.00000E+000	7	...........	0
	156	15.7	-3.43954E-001	5.31673E-007	0.00000E+000	-3.43982E-001	0.00000E+000	7	...........	0
	159	16	-3.40951E-001	5.70351E-007	0.00000E+000	-3.40982E-001	0.00000E+000	7	...........	0
	162	16.3	-3.37948E-001	6.00026E-007	0.00000E+000	-3.37982E-001	0.00000E+000	7	...........	0
	165	16.6	-3.34945E-001	6.09361E-007	0.00000E+000	-3.34982E-001	0.00000E+000	7	...........	0
	168	16.9	-3.31942E-001	5.71684E-007	0.00000E+000	-3.31982E-001	0.00000E+000	7	...........	0
	171	17.2	-3.28939E-001	6.32701E-007	0.00000E+000	-3.28982E-001	0.00000E+000	7	...........	0
	174	17.5	-3.25936E-001	5.94024E-007	0.00000E+000	-3.25981E-001	0.00000E+000	7	...........	0
	177	17.8	-3.22833E-001	6.31701E-007	0.00000E+000	-3.22981E-001	0.00000E+000	7	...........	0
	180	18.1	-3.19930E-001	5.81354E-007	0.00000E+000	-3.19981E-001	0.00000E+000	7	...........	0
	183	18.4	-3.16927E-001	6.73713E-007	0.00000E+000	-3.16981E-001	0.00000E+000	7	...........	0
	186	18.7	-3.13924E-001	6.08695E-007	0.00000E+000	-3.13981E-001	0.00000E+000	7	...........	0
	189	19	-3.11021E-001	6.14696E-007	0.00000E+000	-3.10981E-001	0.00000E+000	7	...........	0
	192	19.3	-3.07918E-001	6.25366E-007	0.00000E+000	-3.07981E-001	0.00000E+000	7	...........	0
	195	19.6	-3.05015E-001	6.61709E-007	0.00000E+000	-3.04981E-001	0.00000E+000	7	...........	0
	198	19.9	-3.02013E-001	6.49373E-007	0.00000E+000	-3.01980E-001	0.00000E+000	7	...........	0
	201	20.2	-2.99010E-001	6.83715E-007	0.00000E+000	-2.98980E-001	0.00000E+000	7	...........	0
	204	20.5	-2.95906E-001	7.19725E-007	0.00000E+000	-2.95980E-001	0.00000E+000	7	...........	0
	207	20.8	-2.92903E-001	6.60709E-007	0.00000E+000	-2.92980E-001	0.00000E+000	7	...........	0
	210	21.1	-2.89900E-001	6.75713E-007	0.00000E+000	-2.89980E-001	0.00000E+000	7	...........	0
	213	21.4	-2.86897E-001	6.51706E-007	0.00000E+000	-2.86980E-001	0.00000E+000	7	...........	0
	216	21.7	-2.83995E-001	7.11056E-007	0.00000E+000	-2.83980E-001	0.00000E+000	7	...........	0
	219	22	-2.80891E-001	7.01387E-007	0.00000E+000	-2.80980E-001	0.00000E+000	7	...........	0
	222	22.3	-2.77989E-001	7.18725E-007	0.00000E+000	-2.77979E-001	0.00000E+000	7	...........	0
	225	22.6	-2.74986E-001	7.09055E-007	0.00000E+000	-2.74979E-001	0.00000E+000	7	...........	0
	228	22.9	-2.71983E-001	7.23059E-007	0.00000E+000	-2.71979E-001	0.00000E+000	7	...........	0
	231	23.2	-2.68880E-001	7.28061E-007	0.00000E+000	-2.68979E-001	0.00000E+000	7	...........	0
	234	23.5	-2.65977E-001	7.57069E-007	0.00000E+000	-2.65979E-001	0.00000E+000	7	...........	0
	237	23.8	-2.62874E-001	7.39064E-007	0.00000E+000	-2.62979E-001	0.00000E+000	7	...........	0
	240	24.1	-2.59971E-001	7.18725E-007	0.00000E+000	-2.59979E-001	0.00000E+000	7	...........	0
	243	24.4	-2.56968E-001	7.10389E-007	0.00000E+000	-2.56979E-001	0.00000E+000	7	...........	0
	246	24.7	-2.53764E-001	7.53068E-007	0.00000E+000	-2.53978E-001	0.00000E+000	7	...........	0
	249	25	-2.50962E-001	7.27060E-007	0.00000E+000	-2.50978E-001	0.00000E+000	7	...........	0
	252	25.3	-2.47959E-001	7.66738E-007	0.00000E+000	-2.47978E-001	0.00000E+000	7	...........	0
	255	25.6	-2.44956E-001	7.67738E-007	0.00000E+000	-2.44978E-001	0.00000E+000	7	...........	0
	258	25.9	-2.41903E-001	7.69072E-007	0.00000E+000	-2.41978E-001	0.00000E+000	7	...........	0
	261	26.2	-2.38900E-001	7.81075E-007	0.00000E+000	-2.38978E-001	0.00000E+000	7	...........	0
	264	26.5	-2.35907E-001	7.69405E-007	0.00000E+000	-2.35978E-001	0.00000E+000	7	...........	0
	267	26.8	-2.32874E-001	7.69405E-007	0.00000E+000	-2.32978E-001	0.00000E+000	7	...........	0
	270	27.1	-2.29891E-001	7.66405E-007	0.00000E+000	-2.29977E-001	0.00000E+000	7	...........	0
	273	27.4	-2.26898E-001	7.98080E-007	0.00000E+000	-2.26977E-001	0.00000E+000	7	...........	0
	276	27.7	-2.23895E-001	7.89744E-007	0.00000E+000	-2.23977E-001	0.00000E+000	7	...........	0
	279	28	-2.20912E-001	8.10083E-007	0.00000E+000	-2.20977E-001	0.00000E+000	7	...........	0
	282	28.3	-2.17899E-001	8.58430E-007	0.00000E+000	-2.17977E-001	0.00000E+000	7	...........	0
	285	28.6	-2.14916E-001	8.28088E-007	0.00000E+000	-2.14977E-001	0.00000E+000	7	...........	0
	288	28.9	-2.11893E-001	8.45760E-007	0.00000E+000	-2.11977E-001	0.00000E+000	7	...........	0
	291	29.2	-2.08910E-001	8.33756E-007	0.00000E+000	-2.08977E-001	0.00000E+000	7	...........	0
	294	29.5	-2.05897E-001	8.43092E-007	0.00000E+000	-2.05976E-001	0.00000E+000	7	...........	0
	297	29.8	-2.02904E-001	9.13778E-007	0.00000E+000	-2.02976E-001	0.00000E+000	7	...........	0
	300	30.1	-1.99901E-001	8.29755E-007	0.00000E+000	-1.99976E-001	0.00000E+000	7	...........	0
	303	30.4	-1.96908E-001	8.07082E-007	0.00000E+000	-1.96976E-001	0.00000E+000	7	...........	0
	306	30.7	-1.93915E-001	8.06749E-007	0.00000E+000	-1.93976E-001	0.00000E+000	7	...........	0
	309	31	-1.90902E-001	8.56096E-007	0.00000E+000	-1.90976E-001	0.00000E+000	7	...........	0
	312	31.3	-1.87909E-001	8.61764E-007	0.00000E+000	-1.87976E-001	0.00000E+000	7	...........	0
	315	31.6	-1.84896E-001	8.72100E-007	0.00000E+000	-1.84976E-001	0.00000E+000	7	...........	0
	318	31.9	-1.81913E-001	8.84104E-007	0.00000E+000	-1.81975E-001	0.00000E+000	7	...........	0
	321	32.2	-1.78900E-001	8.69099E-007	0.00000E+000	-1.78975E-001	0.00000E+000	7	...........	0
	324	32.5	-1.75917E-001	8.63098E-007	0.00000E+000	-1.75975E-001	0.00000E+000	7	...........	0
	327	32.8	-1.72894E-001	9.47454E-007	0.00000E+000	-1.72975E-001	0.00000E+000	7	...........	0
	330	33.1	-1.69891E-001	9.29783E-007	0.00000E+000	-1.69975E-001	0.00000E+000	7	...........	0
	333	33.4	-1.66969E-001	9.40786E-007	0.00000E+000	-1.67025E-001	0.00000E+000	7	...........	0
	336	33.7	-1.63976E-001	9.23781E-007	0.00000E+000	-1.64025E-001	0.00000E+000	7	...........	0
	339	34	-1.60973E-001	9.66126E-007	0.00000E+000	-1.61025E-001	0.00000E+000	7	...........	0
	342	34.3	-1.57970E-001	9.82131E-007	0.00000E+000	-1.58025E-001	0.00000E+000	7	...........	0
	345	34.6	-1.54967E-001	9.68127E-007	0.00000E+000	-1.55024E-001	0.00000E+000	7	...........	0
	348	34.9	-1.51994E-001	9.49788E-007	0.00000E+000	-1.52024E-001	0.00000E+000	7	...........	0
	351	35.2	-1.48991E-001	9.49788E-007	0.00000E+000	-1.49024E-001	0.00000E+000	7	...........	0
	354	35.5	-1.45988E-001	9.80797E-007	0.00000E+000	-1.46024E-001	0.00000E+000	7	...........	0
	357	35.8	-1.42985E-001	9.21114E-007	0.00000E+000	-1.43024E-001	0.00000E+000	7	...........	0
	360	36.1	-1.39992E-001	1.02014E-006	0.00000E+000	-1.40024E-001	0.00000E+000	7	...........	0
	363	36.4	-1.36989E-001	1.06249E-006	0.00000E+000	-1.37024E-001	0.00000E+000	7	...........	0
	366	36.7	-1.33986E-001	1.08916E-006	0.00000E+000	-1.34024E-001	0.00000E+000	7	...........	0
	369	37	-1.30983E-001	1.10583E-006	0.00000E+000	-1.31023E-001	0.00000E+000	7	...........	0
	372	37.3	-1.28000E-001	1.06415E-006	0.00000E+000	-1.28023E-001	0.00000E+000	7	...........	0
	375	37.6	-1.24987E-001	1.09449E-006	0.00000E+000	-1.25023E-001	0.00000E+000	7	...........	0
	378	37.9	-1.22004E-001	1.11083E-006	0.00000E+000	-1.22023E-001	0.00000E+000	7	...........	0
	381	38.2	-1.18961E-001	1.17818E-006	0.00000E+000	-1.19023E-001	0.00000E+000	7	...........	0
	384	38.5	-1.15988E-001	1.15251E-006	0.00000E+000	-1.16023E-001	0.00000E+000	7	...........	0
	387	38.8	-1.12995E-001	1.09716E-006	0.00000E+000	-1.13023E-001	0.00000E+000	7	...........	0
	390	39.1	-1.09992E-001	1.12884E-006	0.00000E+000	-1.10023E-001	0.00000E+000	7	...........	0
	393	39.4	-1.06979E-001	1.13951E-006	0.00000E+000	-1.07022E-001	0.00000E+000	7	...........	0
	396	39.7	-1.03996E-001	1.05715E-006	0.00000E+000	-1.04022E-001	0.00000E+000	7	...........	0
	399	40	-1.00973E-001	1.13150E-006	0.00000E+000	-1.01022E-001	0.00000E+000	7	...........	0
	402	40.3	-9.79899E-002	1.08683E-006	0.00000E+000	-9.80221E-002	0.00000E+000	7	...........	0
	405	40.6	-9.49769E-002	1.19152E-006	0.00000E+000	-9.50219E-002	0.00000E+000	7	...........	0
	408	40.9	-9.19940E-002	1.17685E-006	0.00000E+000	-9.20218E-002	0.00000E+000	7	...........	0
	411	41.2	-8.89910E-002	1.21119E-006	0.00000E+000	-8.90217E-002	0.00000E+000	7	...........	0
	414	41.5	-8.59880E-002	1.26187E-006	0.00000E+000	-8.60216E-002	0.00000E+000	7	...........	0
	417	41.8	-8.30050E-002	1.26187E-006	0.00000E+000	-8.30214E-002	0.00000E+000	7	...........	0
	420	42.1	-8.00020E-002	1.31222E-006	0.00000E+000	-8.00213E-002	0.00000E+000	7	...........	0
	423	42.4	-7.69990E-002	1.29955E-006	0.00000E+000	-7.70212E-002	0.00000E+000	7	...........	0
	426	42.7	-7.39860E-002	1.25187E-006	0.00000E+000	-7.40211E-002	0.00000E+000	7	...........	0
	429	43	-7.09730E-002	1.34623E-006	0.00000E+000	-7.10210E-002	0.00000E+000	7	...........	0
	432	43.3	-6.79901E-002	1.44526E-006	0.00000E+000	-6.80208E-002	0.00000E+000	7	...........	0
	435	43.6	-6.49771E-002	1.42125E-006	0.00000E+000	-6.50207E-002	0.00000E+000	7	...........	0
	438	43.9	-6.19941E-002	1.45659E-006	0.00000E+000	-6.20206E-002	0.00000E+000	7	...........	0
	441	44.2	-5.89811E-002	1.49894E-006	0.00000E+000	-5.90205E-002	0.00000E+000	7	...........	0
	444	44.5	-5.59981E-002	1.46826E-006	0.00000E+000	-5.60203E-002	0.00000E+000	7	...........	0
	447	44.8	-5.29951E-002	1.46693E-006	0.00000E+000	-5.30202E-002	0.00000E+000	7	...........	0
	450	45.1	-5.00022E-002	1.50261E-006	0.00000E+000	-5.00201E-002	0.00000E+000	7	...........	0
	453	45.4	-4.69892E-002	1.45593E-006	0.00000E+000	-4.70200E-002	0.00000E+000	7	...........	0
	456	45.7	-4.39762E-002	1.51928E-006	0.00000E+000	-4.40199E-002	0.00000E+000	7	...........	0
	459	46	-4.10032E-002	1.51428E-006	0.00000E+000	-4.10197E-002	0.00000E+000	7	...........	0
	462	46.3	-3.79902E-002	1.50061E-006	0.00000E+000	-3.80196E-002	0.00000E+000	7	...........	0
	465	46.6	-3.49872E-002	1.54695E-006	0.00000E+000	-3.50195E-002	0.00000E+000	7	...........	0
	468	46.9	-3.19842E-002	1.50828E-006	0.00000E+000	-3.20194E-002	0.00000E+000	7	...........	0
	471	47.2	-2.89612E-002	1.60664E-006	0.00000E+000	-2.90192E-002	0.00000E+000	7	...........	0
	474	47.5	-2.59883E-002	1.64198E-006	0.00000E+000	-2.60191E-002	0.00000E+000	7	...........	0
	477	47.8	-2.29720E-002	1.72067E-006	0.00000E+000	-2.30190E-002	0.00000E+000	7	...........	0
	480	48.1	-1.99910E-002	1.73567E-006	0.00000E+000	-2.00189E-002	0.00000E+000	7	...........	0
	483	48.4	-1.69831E-002	1.79969E-006	0.00000E+000	-1.70187E-002	0.00000E+000	7	...........	0
	486	48.7	-1.39791E-002	1.78935E-006	0.00000E+000	-1.40186E-002	0.00000E+000	7	...........	0
	489	49	-1.09721E-002	1.87338E-006	0.00000E+000	-1.10185E-002	0.00000E+000	7	...........	0
	492	49.3	-7.98810E-003	1.94673E-006	0.00000E+000	-8.01838E-003	0.00000E+000	7	...........	0
	495	49.6	-5.00112E-003	1.87504E-006	0.00000E+000	-5.01826E-003	0.00000E+000	7	...........	0
	498	49.9	-2.02016E-003	1.87338E-006	0.00000E+000	-2.01814E-003	0.00000E+000	7	...........	0
	501	50.2	9.83831E-004	1.87404E-006	0.00000E+000	9.81987E-004	0.00000E+000	7	...........	0
	504	50.5	4.02786E-003	1.94006E-006	0.00000E+000	3.98211E-003	0.00000E+000	7	...........	0
	507	50.8	7.01283E-003	1.86704E-006	0.00000E+000	6.98223E-003	0.00000E+000	7	...........	0
	510	51.1	1.00078E-002	1.81969E-006	0.00000E+000	9.98235E-003	0.00000E+000	7	...........	0
	513	51.4	1.30128E-002	1.96140E-006	0.00000E+000	1.29825E-002	0.00000E+000	7	...........	0
	516	51.7	1.60038E-002	1.97574E-006	0.00000E+000	1.59826E-002	0.00000E+000	7	...........	0
	519	52	1.90008E-002	1.95373E-006	0.00000E+000	1.89827E-002	0.00000E+000	7	...........	0
	522	52.3	2.19897E-002	1.81403E-006	0.00000E+000	2.19828E-002	0.00000E+000	7	...........	0
	525	52.6	2.49847E-002	1.83803E-006	0.00000E+000	2.49830E-002	0.00000E+000	7	...........	0
	528	52.9	2.80255E-002	1.82370E-006	0.00000E+000	2.79831E-002	0.00000E+000	7	...........	0
	531	53.2	3.09985E-002	1.78102E-006	0.00000E+000	3.09832E-002	0.00000E+000	7	...........	0
	534	53.5	3.40115E-002	1.86037E-006	0.00000E+000	3.39833E-002	0.00000E+000	7	...........	0
	537	53.8	3.70245E-002	1.85604E-006	0.00000E+000	3.69835E-002	0.00000E+000	7	...........	0
	540	54.1	4.00174E-002	1.89805E-006	0.00000E+000	3.99836E-002	0.00000E+000	7	...........	0
	543	54.4	4.30204E-002	1.95006E-006	0.00000E+000	4.29837E-002	0.00000E+000	7	...........	0
	546	54.7	4.60034E-002	1.91305E-006	0.00000E+000	4.59838E-002	0.00000E+000	7	...........	0
	549	55	4.89964E-002	1.91539E-006	0.00000E+000	4.89840E-002	0.00000E+000	7	...........	0
	552	55.3	5.20094E-002	1.99774E-006	0.00000E+000	5.19841E-002	0.00000E+000	7	...........	0
	555	55.6	5.50124E-002	2.04376E-006	0.00000E+000	5.49842E-002	0.00000E+000	7	...........	0
	558	55.9	5.80154E-002	2.04909E-006	0.00000E+000	5.79843E-002	0.00000E+000	7	...........	0
	561	56.2	6.10384E-002	2.08377E-006	0.00000E+000	6.09844E-002	0.00000E+000	7	...........	0
	564	56.5	6.40414E-002	2.11177E-006	0.00000E+000	6.39846E-002	0.00000E+000	7	...........	0
	567	56.8	6.70343E-002	2.14345E-006	0.00000E+000	6.69847E-002	0.00000E+000	7	...........	0
	570	57.1	7.00173E-002	2.15112E-006	0.00000E+000	6.99848E-002	0.00000E+000	7	...........	0
	573	57.4	7.30003E-002	2.16812E-006	0.00000E+000	7.29849E-002	0.00000E+000	7	...........	0
	576	57.7	7.60133E-002	2.23447E-006	0.00000E+000	7.59851E-002	0.00000E+000	7	...........	0
	579	58	7.90163E-002	2.32150E-006	0.00000E+000	7.89852E-002	0.00000E+000	7	...........	0
	582	58.3	8.20193E-002	2.42619E-006	0.00000E+000	8.19853E-002	0.00000E+000	7	...........	0
	585	58.6	8.50222E-002	2.48821E-006	0.00000E+000	8.49854E-002	0.00000E+000	7	...........	0
	588	58.9	8.80052E-002	2.43620E-006	0.00000E+000	8.79855E-002	0.00000E+000	7	...........	0
	591	59.2	9.10182E-002	2.50288E-006	0.00000E+000	9.09857E-002	0.00000E+000	7	...........	0
	594	59.5	9.40012E-002	2.65392E-006	0.00000E+000	9.39858E-002	0.00000E+000	7	...........	0
	597	59.8	9.70042E-002	2.75095E-006	0.00000E+000	9.69859E-002	0.00000E+000	7	...........	0
	600	60.1	9.99972E-002	2.71461E-006	0.00000E+000	9.99860E-002	0.00000E+000	7	...........	0
	603	60.4	1.03000E-001	2.86932E-006	0.00000E+000	1.02986E-001	0.00000E+000	7	...........	0
	606	60.7	1.06003E-001	2.82964E-006	0.00000E+000	1.05986E-001	0.00000E+000	7	...........	0
	609	61	1.09016E-001	2.79963E-006	0.00000E+000	1.08986E-001	0.00000E+000	7	...........	0
	612	61.3	1.11989E-001	2.82930E-006	0.00000E+000	1.11987E-001	0.00000E+000	7	...........	0
	615	61.6	1.15002E-001	2.92533E-006	0.00000E+000	1.14987E-001	0.00000E+000	7	...........	0
	618	61.9	1.18005E-001	2.93833E-006	0.00000E+000	1.17987E-001	0.00000E+000	7	...........	0
	621	62.2	1.21008E-001	2.95934E-006	0.00000E+000	1.20987E-001	0.00000E+000	7	...........	0
	624	62.5	1.24001E-001	2.80463E-006	0.00000E+000	1.23987E-001	0.00000E+000	7	...........	0
	627	62.8	1.26994E-001	2.92100E-006	0.00000E+000	1.26987E-001	0.00000E+000	7	...........	0
	630	63.1	1.29987E-001	2.92433E-006	0.00000E+000	1.29987E-001	0.00000E+000	7	...........	0
	633	63.4	1.32990E-001	2.85364E-006	0.00000E+000	1.32987E-001	0.00000E+000	7	...........	0
	636	63.7	1.36003E-001	2.79596E-006	0.00000E+000	1.35988E-001	0.00000E+000	7	...........	0
	639	64	1.38996E-001	2.81130E-006	0.00000E+000	1.38988E-001	0.00000E+000	7	...........	0
	642	64.3	1.42019E-001	2.80830E-006	0.00000E+000	1.41988E-001	0.00000E+000	7	...........	0
	645	64.6	1.45002E-001	2.77529E-006	0.00000E+000	1.44988E-001	0.00000E+000	7	...........	0
	648	64.9	1.48015E-001	3.00035E-006	0.00000E+000	1.47988E-001	0.00000E+000	7	...........	0
	651	65.2	1.50998E-001	2.92867E-006	0.00000E+000	1.50988E-001	0.00000E+000	7	...........	0
	654	65.5	1.54001E-001	2.96434E-006	0.00000E+000	1.53988E-001	0.00000E+000	7	...........	0
	657	65.8	1.57004E-001	2.92333E-006	0.00000E+000	1.56988E-001	0.00000E+000	7	...........	0
	660	66.1	1.59997E-001	2.89566E-006	0.00000E+000	1.59988E-001	0.00000E+000	7	...........	0
	663	66.4	1.63000E-001	2.98535E-006	0.00000E+000	1.62989E-001	0.00000E+000	7	...........	0
	666	66.7	1.66033E-001	2.96001E-006	0.00000E+000	1.65989E-001	0.00000E+000	7	...........	0
	669	67	1.69006E-001	3.13172E-006	0.00000E+000	1.68989E-001	0.00000E+000	7	...........	0
	672	67.3	1.72009E-001	3.10771E-006	0.00000E+000	1.71989E-001	0.00000E+000	7	...........	0
	675	67.6	1.75002E-001	3.27576E-006	0.00000E+000	1.74989E-001	0.00000E+000	7	...........	0
	678	67.9	1.78005E-001	3.24242E-006	0.00000E+000	1.77989E-001	0.00000E+000	7	...........	0
	681	68.2	1.81018E-001	3.16473E-006	0.00000E+000	1.80989E-001	0.00000E+000	7	...........	0
	684	68.5	1.84001E-001	3.22008E-006	0.00000E+000	1.83989E-001	0.00000E+000	7	...........	0
	687	68.8	1.87004E-001	3.33878E-006	0.00000E+000	1.86990E-001	0.00000E+000	7	...........	0
	690	69.1	1.90007E-001	3.49649E-006	0.00000E+000	1.89990E-001	0.00000E+000	7	...........	0
	693	69.4	1.93020E-001	3.77256E-006	0.00000E+000	1.92990E-001	0.00000E+000	7	...........	0
	696	69.7	1.96013E-001	3.72855E-006	0.00000E+000	1.95990E-001	0.00000E+000	7	...........	0
	699	70	1.98976E-001	3.63853E-006	0.00000E+000	1.98990E-001	0.00000E+000	7	...........	0
	702	70.3	2.02009E-001	3.62686E-006	0.00000E+000	2.01990E-001	0.00000E+000	7	...........	0
	705	70.6	2.05002E-001	3.62086E-006	0.00000E+000	2.04990E-001	0.00000E+000	7	...........	0
	708	70.9	2.08025E-001	3.97229E-006	0.00000E+000	2.07990E-001	0.00000E+000	7	...........	0
	711	71.2	2.11018E-001	3.75389E-006	0.00000E+000	2.10991E-001	0.00000E+000	7	...........	0
	714	71.5	2.14011E-001	3.86926E-006	0.00000E+000	2.13991E-001	0.00000E+000	7	...........	0
	717	71.8	2.17004E-001	3.90860E-006	0.00000E+000	2.16991E-001	0.00000E+000	7	...........	0
	720	72.1	2.20007E-001	4.11132E-006	0.00000E+000	2.19991E-001	0.00000E+000	7	...........	0
	723	72.4	2.23000E-001	4.18068E-006	0.00000E+000	2.22991E-001	0.00000E+000	7	...........	0
	726	72.7	2.25993E-001	4.34906E-006	0.00000E+000	2.25991E-001	0.00000E+000	7	...........	0
	729	73	2.28996E-001	4.38240E-006	0.00000E+000	2.28991E-001	0.00000E+000	7	...........	0
	732	73.3	2.31999E-001	4.35506E-006	0.00000E+000	2.31991E-001	0.00000E+000	7	...........	0
	735	73.6	2.35002E-001	4.37039E-006	0.00000E+000	2.34992E-001	0.00000E+000	7	...........	0
	738	73.9	2.38005E-001	4.41207E-006	0.00000E+000	2.37992E-001	0.00000E+000	7	...........	0
	741	74.2	2.40997E-001	4.33238E-006	0.00000E+000	2.40992E-001	0.00000E+000	7	...........	0
	744	74.5	2.43970E-001	4.32838E-006	0.00000E+000	2.43992E-001	0.00000E+000	7	...........	0
	747	74.8	2.46993E-001	4.50710E-006	0.00000E+000	2.46992E-001	0.00000E+000	7	...........	0
	750	75.1	2.49996E-001	4.26770E-006	0.00000E+000	2.49992E-001	0.00000E+000	7	...........	0
	753	75.4	2.52979E-001	4.21102E-006	0.00000E+000	2.52992E-001	0.00000E+000	7	...........	0
	756	75.7	2.55962E-001	4.31238E-006	0.00000E+000	2.55992E-001	0.00000E+000	7	...........	0
	759	76	2.58935E-001	4.34906E-006	0.00000E+000	2.58993E-001	0.00000E+000	7	...........	0
	762	76.3	2.61948E-001	4.25970E-006	0.00000E+000	2.61993E-001	0.00000E+000	7	...........	0
	765	76.6	2.64951E-001	4.26470E-006	0.00000E+000	2.64993E-001	0.00000E+000	7	...........	0
	768	76.9	2.68155E-001	4.74350E-006	0.00000E+000	2.67993E-001	0.00000E+000	7	...........	0
	771	77.2	2.71158E-001	4.85820E-006	0.00000E+000	2.70993E-001	0.00000E+000	7	...........	0
	774	77.5	2.74161E-001	4.94455E-006	0.00000E+000	2.73993E-001	0.00000E+000	7	...........	0
	777	77.8	2.77164E-001	4.95155E-006	0.00000E+000	2.76993E-001	0.00000E+000	7	...........	0
	780	78.1	2.80067E-001	4.84853E-006	0.00000E+000	2.79993E-001	0.00000E+000	7	...........	0
	783	78.4	2.83170E-001	4.93622E-006	0.00000E+000	2.82993E-001	0.00000E+000	7	...........	0
	786	78.7	2.86173E-001	4.70849E-006	0.00000E+000	2.85994E-001	0.00000E+000	7	...........	0
	789	79	2.89176E-001	4.91621E-006	0.00000E+000	2.88994E-001	0.00000E+000	7	...........	0
	792	79.3	2.92179E-001	4.81318E-006	0.00000E+000	2.91994E-001	0.00000E+000	7	...........	0
	795	79.6	2.95182E-001	4.62880E-006	0.00000E+000	2.94994E-001	0.00000E+000	7	...........	0
	798	79.9	2.98185E-001	4.80018E-006	0.00000E+000	2.97994E-001	0.00000E+000	7	...........	0
	801	80.2	3.01188E-001	4.77017E-006	0.00000E+000	3.00994E-001	0.00000E+000	7	...........	0
	804	80.5	3.04191E-001	5.06425E-006	0.00000E+000	3.03994E-001	0.00000E+000	7	...........	0
	807	80.8	3.07194E-001	4.97689E-006	0.00000E+000	3.06994E-001	0.00000E+000	7	...........	0
	810	81.1	3.10097E-001	4.95756E-006	0.00000E+000	3.09995E-001	0.00000E+000	7	...........	0
	813	81.4	3.13200E-001	5.04558E-006	0.00000E+000	3.12995E-001	0.00000E+000	7	...........	0
	816	81.7	3.16203E-001	5.18695E-006	0.00000E+000	3.15995E-001	0.00000E+000	7	...........	0
	819	82	3.19106E-001	5.52471E-006	0.00000E+000	3.18995E-001	0.00000E+000	7	...........	0
	822	82.3	3.22109E-001	5.45803E-006	0.00000E+000	3.21995E-001	0.00000E+000	7	...........	0
	825	82.6	3.25112E-001	5.38601E-006	0.00000E+000	3.24995E-001	0.00000E+000	7	...........	0
	828	82.9	3.28115E-001	5.35700E-006	0.00000E+000	3.27995E-001	0.00000E+000	7	...........	0
	831	83.2	3.31218E-001	5.32099E-006	0.00000E+000	3.30995E-001	0.00000E+000	7	...........	0
	834	83.5	3.34221E-001	5.39768E-006	0.00000E+000	3.33996E-001	0.00000E+000	7	...........	0
	837	83.8	3.37124E-001	5.40001E-006	0.00000E+000	3.36996E-001	0.00000E+000	7	...........	0
	840	84.1	3.40227E-001	5.59306E-006	0.00000E+000	3.39996E-001	0.00000E+000	7	...........	0
	843	84.4	3.43130E-001	5.42669E-006	0.00000E+000	3.42996E-001	0.00000E+000	7	...........	0
	846	84.7	3.46133E-001	5.63274E-006	0.00000E+000	3.45996E-001	0.00000E+000	7	...........	0
	849	85	3.49136E-001	5.61807E-006	0.00000E+000	3.48996E-001	0.00000E+000	7	...........	0
	852	85.3	3.52239E-001	5.64841E-006	0.00000E+000	3.51996E-001	0.00000E+000	7	...........	0
	855	85.6	3.55142E-001	5.77345E-006	0.00000E+000	3.54996E-001	0.00000E+000	7	...........	0
	858	85.9	3.58145E-001	5.69909E-006	0.00000E+000	3.57997E-001	0.00000E+000	7	...........	0
	861	86.2	3.61248E-001	5.85614E-006	0.00000E+000	3.60997E-001	0.00000E+000	7	...........	0
	864	86.5	3.64151E-001	6.12254E-006	0.00000E+000	3.63997E-001	0.00000E+000	7	...........	0
	867	86.8	3.67154E-001	6.52699E-006	0.00000E+000	3.66997E-001	0.00000E+000	7	...........	0
	870	87.1	3.70157E-001	6.69103E-006	0.00000E+000	3.69997E-001	0.00000E+000	7	...........	0
	873	87.4	3.73260E-001	6.79740E-006	0.00000E+000	3.72997E-001	0.00000E+000	7	...........	0
	876	87.7	3.76162E-001	6.91910E-006	0.00000E+000	3.75997E-001	0.00000E+000	7	...........	0
	879	88	3.79065E-001	7.04180E-006	0.00000E+000	3.78997E-001	0.00000E+000	7	...........	0
	882	88.3	3.82169E-001	7.02979E-006	0.00000E+000	3.81998E-001	0.00000E+000	7	...........	0
	885	88.6	3.85171E-001	6.86775E-006	0.00000E+000	3.84998E-001	0.00000E+000	7	...........	0
	888	88.9	3.88174E-001	6.94210E-006	0.00000E+000	3.87998E-001	0.00000E+000	7	...........	0
	891	89.2	3.91177E-001	6.91576E-006	0.00000E+000	3.90998E-001	0.00000E+000	7	...........	0
	894	89.5	3.94180E-001	6.60101E-006	0.00000E+000	3.93998E-001	0.00000E+000	7	...........	0
	897	89.8	3.97183E-001	6.70470E-006	0.00000E+000	3.96998E-001	0.00000E+000	7	...........	0
	900	90.1	4.00186E-001	6.75738E-006	0.00000E+000	3.99998E-001	0.00000E+000	7	...........	0
	903	90.4	4.03189E-001	7.11815E-006	0.00000E+000	4.02998E-001	0.00000E+000	7	...........	0
	906	90.7	4.06092E-001	6.91776E-006	0.00000E+000	4.05999E-001	0.00000E+000	7	...........	0
	909	91	4.09195E-001	7.18417E-006	0.00000E+000	4.08999E-001	0.00000E+000	7	...........	0
	912	91.3	4.12298E-001	7.57061E-006	0.00000E+000	4.11999E-001	0.00000E+000	7	...........	0
	915	91.6	4.15201E-001	7.85602E-006	0.00000E+000	4.14999E-001	0.00000E+000	7	...........	0
	918	91.9	4.18104E-001	8.06141E-006	0.00000E+000	4.17999E-001	0.00000E+000	7	...........	0
	921	92.2	4.21207E-001	7.97205E-006	0.00000E+000	4.20999E-001	0.00000E+000	7	...........	0
	924	92.5	4.24210E-001	8.01406E-006	0.00000E+000	4.23999E-001	0.00000E+000	7	...........	0
	927	92.8	4.27213E-001	8.03807E-006	0.00000E+000	4.26999E-001	0.00000E+000	7	...........	0
	930	93.1	4.30216E-001	8.04140E-006	0.00000E+000	4.30000E-001	0.00000E+000	7	...........	0
	933	93.4	4.33219E-001	7.79534E-006	0.00000E+000	4.33000E-001	0.00000E+000	7	...........	0
	936	93.7	4.36222E-001	7.70131E-006	0.00000E+000	4.36000E-001	0.00000E+000	7	...........	0
	939	94	4.39225E-001	8.22579E-006	0.00000E+000	4.39000E-001	0.00000E+000	7	...........	0
	942	94.3	4.42228E-001	7.87169E-006	0.00000E+000	4.42000E-001	0.00000E+000	7	...........	0
	945	94.6	4.45231E-001	7.71765E-006	0.00000E+000	4.45000E-001	0.00000E+000	7	...........	0
	948	94.9	4.48234E-001	7.84935E-006	0.00000E+000	4.48000E-001	0.00000E+000	7	...........	0
	951	95.2	4.51237E-001	7.89903E-006	0.00000E+000	4.51000E-001	0.00000E+000	7	...........	0
	954	95.5	4.54240E-001	7.97205E-006	0.00000E+000	4.54001E-001	0.00000E+000	7	...........	0
	957	95.8	4.57243E-001	8.07008E-006	0.00000E+000	4.57001E-001	0.00000E+000	7	...........	0
	960	96.1	4.60246E-001	8.30281E-006	0.00000E+000	4.60001E-001	0.00000E+000	7	...........	0
	963	96.4	4.63149E-001	8.34252E-006	0.00000E+000	4.63001E-001	0.00000E+000	8	...........	0
	966	96.7	4.66152E-001	8.38919E-006	0.00000E+000	4.66001E-001	0.00000E+000	8	...........	0
	969	97	4.69355E-001	8.43920E-006	0.00000E+000	4.69001E-001	0.00000E+000	8	...........	0
	972	97.3	4.72258E-001	8.55254E-006	0.00000E+000	4.72001E-001	0.00000E+000	8	...........	0
	975	97.6	4.75261E-001	8.46253E-006	0.00000E+000	4.75001E-001	0.00000E+000	8	...........	0
	978	97.9	4.78164E-001	8.40919E-006	0.00000E+000	4.78001E-001	0.00000E+000	8	...........	0
	981	98.2	4.81167E-001	8.50253E-006	0.00000E+000	4.81002E-001	0.00000E+000	8	...........	0
	984	98.5	4.84270E-001	8.64588E-006	0.00000E+000	4.84002E-001	0.00000E+000	8	...........	0
	987	98.8	4.87273E-001	8.75922E-006	0.00000E+000	4.87002E-001	0.00000E+000	8	...........	0
	990	99.1	4.90176E-001	8.79922E-006	0.00000E+000	4.90002E-001	0.00000E+000	8	...........	0
	993	99.4	4.93279E-001	8.93256E-006	0.00000E+000	4.93002E-001	0.00000E+000	8	...........	0
	996	99.7	4.96182E-001	9.45927E-006	0.00000E+000	4.96002E-001	0.00000E+000	8	...........	0
	999	100	4.99285E-001	9.72262E-006	0.00000E+000	4.99002E-001	0.00000E+000	8	...........	0
	1002	100.3	5.02188E-001	9.73595E-006	0.00000E+000	5.02002E-001	0.00000E+000	8	...........	0
	1005	100.6	5.05291E-001	1.01460E-005	0.00000E+000	5.05003E-001	0.00000E+000	8	...........	0
	1008	100.9	5.08194E-001	1.02327E-005	0.00000E+000	5.08003E-001	0.00000E+000	8	...........	0
	1011	101.2	5.11197E-001	1.01493E-005	0.00000E+000	5.11003E-001	0.00000E+000	8	...........	0
	1014	101.5	5.14200E-001	1.04393E-005	0.00000E+000	5.14003E-001	0.00000E+000	8	...........	0
	1017	101.8	5.17203E-001	1.06694E-005	0.00000E+000	5.17003E-001	0.00000E+000	8	...........	0
	1020	102.1	5.20306E-001	1.04427E-005	0.00000E+000	5.20003E-001	0.00000E+000	8	...........	0
	1023	102.4	5.23209E-001	1.03493E-005	0.00000E+000	5.23003E-001	0.00000E+000	8	...........	0
	1026	102.7	5.26212E-001	9.95930E-006	0.00000E+000	5.26003E-001	0.00000E+000	8	...........	0
	1029	103	5.29215E-001	9.77929E-006	0.00000E+000	5.29004E-001	0.00000E+000	8	...........	0
	1032	103.3	5.32218E-001	9.92930E-006	0.00000E+000	5.32004E-001	0.00000E+000	8	...........	0
	1035	103.6	5.35221E-001	9.82596E-006	0.00000E+000	5.35004E-001	0.00000E+000	8	...........	0
	1038	103.9	5.38224E-001	1.00660E-005	0.00000E+000	5.38004E-001	0.00000E+000	8	...........	0
	1041	104.2	5.41327E-001	1.04260E-005	0.00000E+000	5.41004E-001	0.00000E+000	8	...........	0
	1044	104.5	5.44230E-001	1.05960E-005	0.00000E+000	5.44004E-001	0.00000E+000	8	...........	0
	1047	104.8	5.47333E-001	1.07794E-005	0.00000E+000	5.47004E-001	0.00000E+000	8	...........	0
	1050	105.1	5.50336E-001	1.10294E-005	0.00000E+000	5.50004E-001	0.00000E+000	8	...........	0
	1053	105.4	5.53239E-001	1.09627E-005	0.00000E+000	5.53005E-001	0.00000E+000	8	...........	0
	1056	105.7	5.56142E-001	1.14861E-005	0.00000E+000	5.56005E-001	0.00000E+000	8	...........	0
	1059	106	5.59145E-001	1.14727E-005	0.00000E+000	5.59005E-001	0.00000E+000	8	...........	0
	1062	106.3	5.62248E-001	1.17928E-005	0.00000E+000	5.62005E-001	0.00000E+000	8	...........	0
	1065	106.6	5.65251E-001	1.18761E-005	0.00000E+000	5.65005E-001	0.00000E+000	8	...........	0
	1068	106.9	5.68254E-001	1.21628E-005	0.00000E+000	5.68005E-001	0.00000E+000	8	...........	0
	1071	107.2	5.71257E-001	1.22361E-005	0.00000E+000	5.71005E-001	0.00000E+000	8	...........	0
	1074	107.5	5.74160E-001	1.22061E-005	0.00000E+000	5.74005E-001	0.00000E+000	8	...........	0
	1077	107.8	5.77363E-001	1.19294E-005	0.00000E+000	5.77006E-001	0.00000E+000	8	...........	0
	1080	108.1	5.80266E-001	1.19728E-005	0.00000E+000	5.80006E-001	0.00000E+000	8	...........	0
	1083	108.4	5.83269E-001	1.22695E-005	0.00000E+000	5.83006E-001	0.00000E+000	8	...........	0
	1086	108.7	5.86272E-001	1.25561E-005	0.00000E+000	5.86006E-001	0.00000E+000	8	...........	0
	1089	109	5.89175E-001	1.29728E-005	0.00000E+000	5.89006E-001	0.00000E+000	8	...........	0
	1092	109.3	5.92278E-001	1.28362E-005	0.00000E+000	5.92006E-001	0.00000E+000	8	...........	0
	1095	109.6	5.95381E-001	1.31162E-005	0.00000E+000	5.95006E-001	0.00000E+000	8	...........	0
	1098	109.9	5.98284E-001	1.33229E-005	0.00000E+000	5.98006E-001	0.00000E+000	8	...........	0
	1100	110.1	6.00286E-001	1.23861E-005	0.00000E+000	6.00006E-001	0.00000E+000	8	...........	0