File: LSV ZFO/ZFO_h300_chop.DTA
EXPLAIN
TAG	LSV
TITLE	LABEL	Linear Sweep Voltammetry	Test &Identifier
DATE	LABEL	7/5/2024	Date
TIME	LABEL	16:44:52	Time
NOTES	NOTES	1	&Notes...

PSTAT	PSTAT	L3FNano	Potentiostat
VINIT	POTEN	-5.00000E-001	F	&Initial E (V)
VFINAL	POTEN	6.00000E-001	F	&Final E (V)
SCANRATE	QUANT	9.99998E+000	&Scan Rate (mV/s)
STEPSIZE	QUANT	1.00000E+000	St&ep Size (mV)
IMODE	SELECTOR	0	I/E Range &Mode
IRANGE	QUANT	1.00000E+001	&Max Current (mA)
AREA	QUANT	1.00000E+000	Electrode &Area (cm^2)
ELECTRODETYPE	SELECTOR	0	Electrode Type
STRIPPING	TOGGLE	F	Used for Stripping
POLARITY	TOGGLE	F	Signal Polarity
CONDIT	TWOPARAM	F	1.50000E+001	0.00000E+000	Conditionin&g	Time(s)	E(V)
DELAY	TWOPARAM	F	3.00000E+001	0.00000E+000	Init. De&lay	Time(s)	Stab.(mV/s)
EQDELAY	QUANT	5.00000E+000	Equil. &Time (s)
IRCOMP	SELECTOR	0	IRCom&p
PFCOR	QUANT	5.00000E+001	PF Corr. (ohm)
SAMPLINGMODE	SELECTOR	0	Sampling &Mode
EOC	QUANT	0	Open Circuit (V)
PSTATMODEL	IQUANT	48	Pstat Model
PSTATSECTION	LABEL	IFC1000-07082	Pstat Section
PSTATSERIALNO	LABEL	07082	Pstat Serial Number
CTRLMODE	IQUANT	1	Control Mode
IESTAB	IQUANT	2	I/E Stability
CASPEED	IQUANT	2	Control Amp Speed
CONVENTION	IQUANT	1	Current Convention
ICHRANGE	IQUANT	2	Ich Range
ICHRANGEMODE	TOGGLE	F	Ich Auto Range
ICHOFFSETENABLE	TOGGLE	F	Ich Offset Enable
ICHOFFSET	QUANT	0	Ich Offset (V)
ICHFILTER	IQUANT	3	Ich Filter
VCHRANGE	IQUANT	2	Vch Range
VCHRANGEMODE	TOGGLE	T	Vch Auto Range
VCHOFFSETENABLE	TOGGLE	F	Vch Offset Enable
VCHOFFSET	QUANT	0	Vch Offset (V)
VCHFILTER	IQUANT	3	Vch Filter
IERANGELOWERLIMIT	IQUANT	4	I/E Range Lower Limit
IERANGEMODE	TOGGLE	T	I/E AutoRange
IERANGE	IQUANT	11	I/E Range
ACHSELECT	IQUANT	4	Ach Select
CABLEID	IQUANT	14	Cable ID
DCCALDATE	LABEL	7/3/2024	DC Calibration Date
ACCALDATE	LABEL	7/3/2024	AC Calibration Date
FRAMEWORKVERSION	QUANT	6.24	Framework Version
INSTRUMENTVERSION	LABEL	3.28	Instrument Version
CURVE	TABLE	1101
	Pt	T	Vf	Im	Vu	Sig	Ach	IERange	Over	Cycle
	#	s	V vs. Ref.	A	V	V	V	#	bits	#
	0	0.1	-4.99909E-001	-1.46991E-005	0.00000E+000	-4.99988E-001	0.00000E+000	11	...........	0
	3	0.4	-4.97007E-001	-1.85627E-005	0.00000E+000	-4.96988E-001	0.00000E+000	8	...........	0
	6	0.7	-4.93903E-001	-1.75860E-005	0.00000E+000	-4.93988E-001	0.00000E+000	8	...........	0
	9	1	-4.91001E-001	-1.66859E-005	0.00000E+000	-4.90988E-001	0.00000E+000	8	...........	0
	12	1.3	-4.87998E-001	-1.57958E-005	0.00000E+000	-4.87988E-001	0.00000E+000	8	...........	0
	15	1.6	-4.84995E-001	-1.50291E-005	0.00000E+000	-4.84988E-001	0.00000E+000	8	...........	0
	18	1.9	-4.81992E-001	-1.42957E-005	0.00000E+000	-4.81988E-001	0.00000E+000	8	...........	0
	21	2.2	-4.78889E-001	-1.36723E-005	0.00000E+000	-4.78988E-001	0.00000E+000	8	...........	0
	24	2.5	-4.75986E-001	-1.30690E-005	0.00000E+000	-4.75987E-001	0.00000E+000	8	...........	0
	27	2.8	-4.72983E-001	-1.24423E-005	0.00000E+000	-4.72987E-001	0.00000E+000	8	...........	0
	30	3.1	-4.69980E-001	-1.18789E-005	0.00000E+000	-4.69987E-001	0.00000E+000	8	...........	0
	33	3.4	-4.66977E-001	-1.12888E-005	0.00000E+000	-4.66987E-001	0.00000E+000	8	...........	0
	36	3.7	-4.63974E-001	-1.07721E-005	0.00000E+000	-4.63987E-001	0.00000E+000	8	...........	0
	39	4	-4.60971E-001	-1.02821E-005	0.00000E+000	-4.60987E-001	0.00000E+000	8	...........	0
	42	4.3	-4.57868E-001	-9.83541E-006	0.00000E+000	-4.57987E-001	0.00000E+000	8	...........	0
	45	4.6	-4.54965E-001	-9.36871E-006	0.00000E+000	-4.54987E-001	0.00000E+000	8	...........	0
	48	4.9	-4.51962E-001	-8.94202E-006	0.00000E+000	-4.51987E-001	0.00000E+000	8	...........	0
	51	5.2	-4.48959E-001	-8.53866E-006	0.00000E+000	-4.48986E-001	0.00000E+000	8	...........	0
	54	5.5	-4.45956E-001	-7.35449E-006	0.00000E+000	-4.45986E-001	0.00000E+000	7	...........	0
	57	5.8	-4.43053E-001	-7.45185E-006	0.00000E+000	-4.42986E-001	0.00000E+000	7	...........	0
	60	6.1	-4.39950E-001	-7.24246E-006	0.00000E+000	-4.39986E-001	0.00000E+000	7	...........	0
	63	6.4	-4.36947E-001	-6.97072E-006	0.00000E+000	-4.36986E-001	0.00000E+000	7	...........	0
	66	6.7	-4.33944E-001	-6.61829E-006	0.00000E+000	-4.33986E-001	0.00000E+000	7	...........	0
	69	7	-4.30941E-001	-6.31721E-006	0.00000E+000	-4.30986E-001	0.00000E+000	7	...........	0
	72	7.3	-4.27938E-001	-6.02279E-006	0.00000E+000	-4.27986E-001	0.00000E+000	7	...........	0
	75	7.6	-4.24935E-001	-5.76539E-006	0.00000E+000	-4.24985E-001	0.00000E+000	7	...........	0
	78	7.9	-4.22032E-001	-5.44797E-006	0.00000E+000	-4.21985E-001	0.00000E+000	7	...........	0
	81	8.2	-4.19029E-001	-5.14655E-006	0.00000E+000	-4.18985E-001	0.00000E+000	7	...........	0
	84	8.5	-4.16026E-001	-4.92182E-006	0.00000E+000	-4.15985E-001	0.00000E+000	7	...........	0
	87	8.8	-4.12923E-001	-4.67776E-006	0.00000E+000	-4.12985E-001	0.00000E+000	7	...........	0
	90	9.1	-4.10020E-001	-4.40802E-006	0.00000E+000	-4.09985E-001	0.00000E+000	7	...........	0
	93	9.4	-4.06917E-001	-4.12927E-006	0.00000E+000	-4.06985E-001	0.00000E+000	7	...........	0
	96	9.7	-4.03914E-001	-3.98557E-006	0.00000E+000	-4.03985E-001	0.00000E+000	7	...........	0
	99	10	-4.00911E-001	-6.03980E-006	0.00000E+000	-4.00984E-001	0.00000E+000	7	...........	0
	102	10.3	-3.97908E-001	-4.53405E-006	0.00000E+000	-3.97984E-001	0.00000E+000	7	...........	0
	105	10.6	-3.94905E-001	-3.93389E-006	0.00000E+000	-3.94984E-001	0.00000E+000	7	...........	0
	108	10.9	-3.91902E-001	-3.63214E-006	0.00000E+000	-3.91984E-001	0.00000E+000	7	...........	0
	111	11.2	-3.88899E-001	-3.34939E-006	0.00000E+000	-3.88984E-001	0.00000E+000	7	...........	0
	114	11.5	-3.85896E-001	-3.12000E-006	0.00000E+000	-3.85984E-001	0.00000E+000	7	...........	0
	117	11.8	-3.82893E-001	-2.93695E-006	0.00000E+000	-3.82984E-001	0.00000E+000	7	...........	0
	120	12.1	-3.79990E-001	-2.74489E-006	0.00000E+000	-3.79984E-001	0.00000E+000	7	...........	0
	123	12.4	-3.76887E-001	-2.60385E-006	0.00000E+000	-3.76983E-001	0.00000E+000	7	...........	0
	126	12.7	-3.73884E-001	-2.45348E-006	0.00000E+000	-3.73983E-001	0.00000E+000	7	...........	0
	129	13	-3.70881E-001	-2.26143E-006	0.00000E+000	-3.70983E-001	0.00000E+000	7	...........	0
	132	13.3	-3.67978E-001	-2.12939E-006	0.00000E+000	-3.67983E-001	0.00000E+000	7	...........	0
	135	13.6	-3.64975E-001	-1.99402E-006	0.00000E+000	-3.64983E-001	0.00000E+000	7	...........	0
	138	13.9	-3.61972E-001	-1.88466E-006	0.00000E+000	-3.61983E-001	0.00000E+000	7	...........	0
	141	14.2	-3.58969E-001	-1.76762E-006	0.00000E+000	-3.58983E-001	0.00000E+000	7	...........	0
	144	14.5	-3.55966E-001	-1.67293E-006	0.00000E+000	-3.55983E-001	0.00000E+000	7	...........	0
	147	14.8	-3.52963E-001	-1.54290E-006	0.00000E+000	-3.52982E-001	0.00000E+000	7	...........	0
	150	15.1	-3.49960E-001	-1.43420E-006	0.00000E+000	-3.49982E-001	0.00000E+000	7	...........	0
	153	15.4	-3.46957E-001	1.61831E-006	0.00000E+000	-3.46982E-001	0.00000E+000	7	...........	0
	156	15.7	-3.43954E-001	3.30285E-007	0.00000E+000	-3.43982E-001	0.00000E+000	7	...........	0
	159	16	-3.40951E-001	-1.41845E-007	0.00000E+000	-3.40982E-001	0.00000E+000	7	...........	0
	162	16.3	-3.37948E-001	-4.22255E-007	0.00000E+000	-3.37982E-001	0.00000E+000	7	...........	0
	165	16.6	-3.34945E-001	-3.97248E-007	0.00000E+000	-3.34982E-001	0.00000E+000	7	...........	0
	168	16.9	-3.31942E-001	-4.48596E-007	0.00000E+000	-3.31982E-001	0.00000E+000	7	...........	0
	171	17.2	-3.29039E-001	-4.53597E-007	0.00000E+000	-3.28982E-001	0.00000E+000	7	...........	0
	174	17.5	-3.25936E-001	-3.27229E-007	0.00000E+000	-3.25981E-001	0.00000E+000	7	...........	0
	177	17.8	-3.22933E-001	-2.55876E-007	0.00000E+000	-3.22981E-001	0.00000E+000	7	...........	0
	180	18.1	-3.19830E-001	-2.80883E-007	0.00000E+000	-3.19981E-001	0.00000E+000	7	...........	0
	183	18.4	-3.16927E-001	-2.38205E-007	0.00000E+000	-3.16981E-001	0.00000E+000	7	...........	0
	186	18.7	-3.13924E-001	-1.80522E-007	0.00000E+000	-3.13981E-001	0.00000E+000	7	...........	0
	189	19	-3.11021E-001	-9.44986E-008	0.00000E+000	-3.10981E-001	0.00000E+000	7	...........	0
	192	19.3	-3.07818E-001	1.98662E-008	0.00000E+000	-3.07981E-001	0.00000E+000	7	...........	0
	195	19.6	-3.04915E-001	1.75322E-008	0.00000E+000	-3.04981E-001	0.00000E+000	7	...........	0
	198	19.9	-3.01812E-001	9.38865E-008	0.00000E+000	-3.01980E-001	0.00000E+000	7	...........	0
	201	20.2	-2.98909E-001	-2.58718E-006	0.00000E+000	-2.98980E-001	0.00000E+000	7	...........	0
	204	20.5	-2.95906E-001	-1.59258E-006	0.00000E+000	-2.95980E-001	0.00000E+000	7	...........	0
	207	20.8	-2.92903E-001	-1.15279E-006	0.00000E+000	-2.92980E-001	0.00000E+000	7	...........	0
	210	21.1	-2.90001E-001	-9.10389E-007	0.00000E+000	-2.89980E-001	0.00000E+000	7	...........	0
	213	21.4	-2.86998E-001	-7.27339E-007	0.00000E+000	-2.86980E-001	0.00000E+000	7	...........	0
	216	21.7	-2.83894E-001	-5.79298E-007	0.00000E+000	-2.83980E-001	0.00000E+000	7	...........	0
	219	22	-2.80891E-001	-4.70935E-007	0.00000E+000	-2.80980E-001	0.00000E+000	7	...........	0
	222	22.3	-2.77989E-001	-3.66240E-007	0.00000E+000	-2.77979E-001	0.00000E+000	7	...........	0
	225	22.6	-2.74886E-001	-3.41900E-007	0.00000E+000	-2.74979E-001	0.00000E+000	7	...........	0
	228	22.9	-2.71883E-001	-3.06890E-007	0.00000E+000	-2.71979E-001	0.00000E+000	7	...........	0
	231	23.2	-2.68880E-001	-2.83884E-007	0.00000E+000	-2.68979E-001	0.00000E+000	7	...........	0
	234	23.5	-2.65977E-001	-2.22534E-007	0.00000E+000	-2.65979E-001	0.00000E+000	7	...........	0
	237	23.8	-2.62874E-001	-2.24868E-007	0.00000E+000	-2.62979E-001	0.00000E+000	7	...........	0
	240	24.1	-2.59971E-001	-1.74521E-007	0.00000E+000	-2.59979E-001	0.00000E+000	7	...........	0
	243	24.4	-2.56968E-001	-1.14504E-007	0.00000E+000	-2.56979E-001	0.00000E+000	7	...........	0
	246	24.7	-2.53865E-001	-9.61657E-008	0.00000E+000	-2.53978E-001	0.00000E+000	7	...........	0
	249	25	-2.50862E-001	-5.31539E-008	0.00000E+000	-2.50978E-001	0.00000E+000	7	...........	0
	252	25.3	-2.47959E-001	7.20417E-006	0.00000E+000	-2.47978E-001	0.00000E+000	7	...........	0
	255	25.6	-2.44956E-001	4.08032E-006	0.00000E+000	-2.44978E-001	0.00000E+000	7	...........	0
	258	25.9	-2.41893E-001	2.68160E-006	0.00000E+000	-2.41978E-001	0.00000E+000	7	...........	0
	261	26.2	-2.38880E-001	2.08143E-006	0.00000E+000	-2.38978E-001	0.00000E+000	7	...........	0
	264	26.5	-2.35877E-001	1.76101E-006	0.00000E+000	-2.35978E-001	0.00000E+000	7	...........	0
	267	26.8	-2.32884E-001	1.55329E-006	0.00000E+000	-2.32978E-001	0.00000E+000	7	...........	0
	270	27.1	-2.29881E-001	1.46193E-006	0.00000E+000	-2.29977E-001	0.00000E+000	7	...........	0
	273	27.4	-2.26868E-001	1.40025E-006	0.00000E+000	-2.26977E-001	0.00000E+000	7	...........	0
	276	27.7	-2.23875E-001	1.41758E-006	0.00000E+000	-2.23977E-001	0.00000E+000	7	...........	0
	279	28	-2.20872E-001	1.32623E-006	0.00000E+000	-2.20977E-001	0.00000E+000	7	...........	0
	282	28.3	-2.17879E-001	1.34423E-006	0.00000E+000	-2.17977E-001	0.00000E+000	7	...........	0
	285	28.6	-2.14896E-001	1.35557E-006	0.00000E+000	-2.14977E-001	0.00000E+000	7	...........	0
	288	28.9	-2.11913E-001	1.42292E-006	0.00000E+000	-2.11977E-001	0.00000E+000	7	...........	0
	291	29.2	-2.08870E-001	1.44459E-006	0.00000E+000	-2.08977E-001	0.00000E+000	7	...........	0
	294	29.5	-2.05877E-001	1.46493E-006	0.00000E+000	-2.05976E-001	0.00000E+000	7	...........	0
	297	29.8	-2.02884E-001	1.52428E-006	0.00000E+000	-2.02976E-001	0.00000E+000	7	...........	0
	300	30.1	-1.99881E-001	1.53128E-006	0.00000E+000	-1.99976E-001	0.00000E+000	7	...........	0
	303	30.4	-1.96878E-001	-1.85998E-006	0.00000E+000	-1.96976E-001	0.00000E+000	7	...........	0
	306	30.7	-1.93885E-001	-1.08844E-006	0.00000E+000	-1.93976E-001	0.00000E+000	7	...........	0
	309	31	-1.90852E-001	-7.75352E-007	0.00000E+000	-1.90976E-001	0.00000E+000	7	...........	0
	312	31.3	-1.87889E-001	-5.45289E-007	0.00000E+000	-1.87976E-001	0.00000E+000	7	...........	0
	315	31.6	-1.84886E-001	-3.83245E-007	0.00000E+000	-1.84976E-001	0.00000E+000	7	...........	0
	318	31.9	-1.81903E-001	-3.10558E-007	0.00000E+000	-1.81975E-001	0.00000E+000	7	...........	0
	321	32.2	-1.78890E-001	-2.20200E-007	0.00000E+000	-1.78975E-001	0.00000E+000	7	...........	0
	324	32.5	-1.75887E-001	-1.49847E-007	0.00000E+000	-1.75975E-001	0.00000E+000	7	...........	0
	327	32.8	-1.72874E-001	-1.03501E-007	0.00000E+000	-1.72975E-001	0.00000E+000	7	...........	0
	330	33.1	-1.69881E-001	-4.78191E-008	0.00000E+000	-1.69975E-001	0.00000E+000	7	...........	0
	333	33.4	-1.66919E-001	-2.31456E-008	0.00000E+000	-1.67025E-001	0.00000E+000	7	...........	0
	336	33.7	-1.63936E-001	-8.14151E-009	0.00000E+000	-1.64025E-001	0.00000E+000	7	...........	0
	339	34	-1.60943E-001	2.01996E-008	0.00000E+000	-1.61025E-001	0.00000E+000	7	...........	0
	342	34.3	-1.57960E-001	3.88714E-008	0.00000E+000	-1.58025E-001	0.00000E+000	7	...........	0
	345	34.6	-1.54937E-001	8.98854E-008	0.00000E+000	-1.55024E-001	0.00000E+000	7	...........	0
	348	34.9	-1.51994E-001	8.92186E-008	0.00000E+000	-1.52024E-001	0.00000E+000	7	...........	0
	351	35.2	-1.48961E-001	1.07890E-007	0.00000E+000	-1.49024E-001	0.00000E+000	7	...........	0
	354	35.5	-1.45958E-001	6.64907E-006	0.00000E+000	-1.46024E-001	0.00000E+000	8	...........	0
	357	35.8	-1.42965E-001	4.82552E-006	0.00000E+000	-1.43024E-001	0.00000E+000	7	...........	0
	360	36.1	-1.39962E-001	4.05731E-006	0.00000E+000	-1.40024E-001	0.00000E+000	7	...........	0
	363	36.4	-1.36939E-001	3.84258E-006	0.00000E+000	-1.37024E-001	0.00000E+000	7	...........	0
	366	36.7	-1.33976E-001	3.46014E-006	0.00000E+000	-1.34024E-001	0.00000E+000	7	...........	0
	369	37	-1.30963E-001	3.15439E-006	0.00000E+000	-1.31023E-001	0.00000E+000	7	...........	0
	372	37.3	-1.27980E-001	3.19741E-006	0.00000E+000	-1.28023E-001	0.00000E+000	7	...........	0
	375	37.6	-1.24967E-001	3.28743E-006	0.00000E+000	-1.25023E-001	0.00000E+000	7	...........	0
	378	37.9	-1.21964E-001	3.19907E-006	0.00000E+000	-1.22023E-001	0.00000E+000	7	...........	0
	381	38.2	-1.18961E-001	3.26142E-006	0.00000E+000	-1.19023E-001	0.00000E+000	7	...........	0
	384	38.5	-1.15958E-001	3.24042E-006	0.00000E+000	-1.16023E-001	0.00000E+000	7	...........	0
	387	38.8	-1.12975E-001	3.31310E-006	0.00000E+000	-1.13023E-001	0.00000E+000	7	...........	0
	390	39.1	-1.09972E-001	3.31444E-006	0.00000E+000	-1.10023E-001	0.00000E+000	7	...........	0
	393	39.4	-1.06979E-001	3.37145E-006	0.00000E+000	-1.07022E-001	0.00000E+000	7	...........	0
	396	39.7	-1.03956E-001	3.38279E-006	0.00000E+000	-1.04022E-001	0.00000E+000	7	...........	0
	399	40	-1.00983E-001	-2.12806E-006	0.00000E+000	-1.01022E-001	0.00000E+000	7	...........	0
	402	40.3	-9.79699E-002	-1.01942E-006	0.00000E+000	-9.80221E-002	0.00000E+000	7	...........	0
	405	40.6	-9.49769E-002	-6.36981E-007	0.00000E+000	-9.50219E-002	0.00000E+000	7	...........	0
	408	40.9	-9.19739E-002	-4.38260E-007	0.00000E+000	-9.20218E-002	0.00000E+000	7	...........	0
	411	41.2	-8.89810E-002	-3.11892E-007	0.00000E+000	-8.90217E-002	0.00000E+000	7	...........	0
	414	41.5	-8.59579E-002	-2.20867E-007	0.00000E+000	-8.60216E-002	0.00000E+000	7	...........	0
	417	41.8	-8.29650E-002	-1.73854E-007	0.00000E+000	-8.30214E-002	0.00000E+000	7	...........	0
	420	42.1	-7.99720E-002	-7.98279E-008	0.00000E+000	-8.00213E-002	0.00000E+000	7	...........	0
	423	42.4	-7.69590E-002	-4.28177E-008	0.00000E+000	-7.70212E-002	0.00000E+000	7	...........	0
	426	42.7	-7.39560E-002	1.88659E-008	0.00000E+000	-7.40211E-002	0.00000E+000	7	...........	0
	429	43	-7.09630E-002	3.82046E-008	0.00000E+000	-7.10210E-002	0.00000E+000	7	...........	0
	432	43.3	-6.79700E-002	3.52037E-008	0.00000E+000	-6.80208E-002	0.00000E+000	7	...........	0
	435	43.6	-6.49771E-002	6.82128E-008	0.00000E+000	-6.50207E-002	0.00000E+000	7	...........	0
	438	43.9	-6.19741E-002	8.55509E-008	0.00000E+000	-6.20206E-002	0.00000E+000	7	...........	0
	441	44.2	-5.89711E-002	1.02889E-007	0.00000E+000	-5.90205E-002	0.00000E+000	7	...........	0
	444	44.5	-5.59581E-002	1.43567E-007	0.00000E+000	-5.60203E-002	0.00000E+000	7	...........	0
	447	44.8	-5.29951E-002	1.24228E-007	0.00000E+000	-5.30202E-002	0.00000E+000	7	...........	0
	450	45.1	-4.99721E-002	1.39566E-007	0.00000E+000	-5.00201E-002	0.00000E+000	7	...........	0
	453	45.4	-4.69992E-002	1.09265E-005	0.00000E+000	-4.70200E-002	0.00000E+000	7	....ih..i..	0
	456	45.7	-4.39862E-002	8.50920E-006	0.00000E+000	-4.40199E-002	0.00000E+000	8	...........	0
	459	46	-4.09832E-002	7.18583E-006	0.00000E+000	-4.10197E-002	0.00000E+000	7	...........	0
	462	46.3	-3.79802E-002	6.54266E-006	0.00000E+000	-3.80196E-002	0.00000E+000	7	...........	0
	465	46.6	-3.49872E-002	6.20123E-006	0.00000E+000	-3.50195E-002	0.00000E+000	7	...........	0
	468	46.9	-3.19842E-002	6.17222E-006	0.00000E+000	-3.20194E-002	0.00000E+000	7	...........	0
	471	47.2	-2.89812E-002	6.04019E-006	0.00000E+000	-2.90192E-002	0.00000E+000	7	...........	0
	474	47.5	-2.59883E-002	5.87114E-006	0.00000E+000	-2.60191E-002	0.00000E+000	7	...........	0
	477	47.8	-2.29700E-002	5.65975E-006	0.00000E+000	-2.30190E-002	0.00000E+000	7	...........	0
	480	48.1	-1.99590E-002	5.32599E-006	0.00000E+000	-2.00189E-002	0.00000E+000	7	...........	0
	483	48.4	-1.69750E-002	5.36033E-006	0.00000E+000	-1.70187E-002	0.00000E+000	7	...........	0
	486	48.7	-1.39580E-002	5.17362E-006	0.00000E+000	-1.40186E-002	0.00000E+000	7	...........	0
	489	49	-1.09571E-002	5.10593E-006	0.00000E+000	-1.10185E-002	0.00000E+000	7	...........	0
	492	49.3	-7.97308E-003	5.05058E-006	0.00000E+000	-8.01838E-003	0.00000E+000	7	...........	0
	495	49.6	-4.97210E-003	5.02157E-006	0.00000E+000	-5.01826E-003	0.00000E+000	7	...........	0
	498	49.9	-1.97011E-003	5.13627E-006	0.00000E+000	-2.01814E-003	0.00000E+000	7	...........	0
	501	50.2	1.01887E-003	5.07892E-006	0.00000E+000	9.81987E-004	0.00000E+000	7	...........	0
	504	50.5	4.03287E-003	-1.61392E-006	0.00000E+000	3.98211E-003	0.00000E+000	7	...........	0
	507	50.8	7.02484E-003	-8.81381E-007	0.00000E+000	6.98223E-003	0.00000E+000	7	...........	0
	510	51.1	1.00128E-002	-5.81632E-007	0.00000E+000	9.98235E-003	0.00000E+000	7	...........	0
	513	51.4	1.29157E-002	-3.70574E-007	0.00000E+000	1.29825E-002	0.00000E+000	7	...........	0
	516	51.7	1.59217E-002	-4.39260E-007	0.00000E+000	1.59826E-002	0.00000E+000	7	...........	0
	519	52	1.90148E-002	-1.72187E-007	0.00000E+000	1.89827E-002	0.00000E+000	7	...........	0
	522	52.3	2.20218E-002	-7.54933E-008	0.00000E+000	2.19828E-002	0.00000E+000	7	...........	0
	525	52.6	2.50077E-002	-2.91473E-008	0.00000E+000	2.49830E-002	0.00000E+000	7	...........	0
	528	52.9	2.80555E-002	1.18640E-008	0.00000E+000	2.79831E-002	0.00000E+000	7	...........	0
	531	53.2	3.10285E-002	4.48731E-008	0.00000E+000	3.09832E-002	0.00000E+000	7	...........	0
	534	53.5	3.40315E-002	7.28807E-008	0.00000E+000	3.39833E-002	0.00000E+000	7	...........	0
	537	53.8	3.70545E-002	9.62205E-008	0.00000E+000	3.69835E-002	0.00000E+000	7	...........	0
	540	54.1	4.00174E-002	1.18893E-007	0.00000E+000	3.99836E-002	0.00000E+000	7	...........	0
	543	54.4	4.30304E-002	1.20227E-007	0.00000E+000	4.29837E-002	0.00000E+000	7	...........	0
	546	54.7	4.60334E-002	1.32230E-007	0.00000E+000	4.59838E-002	0.00000E+000	7	...........	0
	549	55	4.90264E-002	1.70908E-007	0.00000E+000	4.89840E-002	0.00000E+000	7	...........	0
	552	55.3	5.20194E-002	1.09265E-005	0.00000E+000	5.19841E-002	0.00000E+000	7	....ih..i..	0
	555	55.6	5.50124E-002	1.10327E-005	0.00000E+000	5.49842E-002	0.00000E+000	8	...........	0
	558	55.9	5.80354E-002	9.59928E-006	0.00000E+000	5.79843E-002	0.00000E+000	8	...........	0
	561	56.2	6.10284E-002	8.63254E-006	0.00000E+000	6.09844E-002	0.00000E+000	8	...........	0
	564	56.5	6.40013E-002	8.19311E-006	0.00000E+000	6.39846E-002	0.00000E+000	7	...........	0
	567	56.8	6.70343E-002	8.06875E-006	0.00000E+000	6.69847E-002	0.00000E+000	7	...........	0
	570	57.1	7.00173E-002	7.76199E-006	0.00000E+000	6.99848E-002	0.00000E+000	7	...........	0
	573	57.4	7.30203E-002	7.83201E-006	0.00000E+000	7.29849E-002	0.00000E+000	7	...........	0
	576	57.7	7.60133E-002	7.83035E-006	0.00000E+000	7.59851E-002	0.00000E+000	7	...........	0
	579	58	7.90063E-002	7.72298E-006	0.00000E+000	7.89852E-002	0.00000E+000	7	...........	0
	582	58.3	8.20393E-002	7.66663E-006	0.00000E+000	8.19853E-002	0.00000E+000	7	...........	0
	585	58.6	8.50122E-002	7.69064E-006	0.00000E+000	8.49854E-002	0.00000E+000	7	...........	0
	588	58.9	8.80152E-002	7.68564E-006	0.00000E+000	8.79855E-002	0.00000E+000	7	...........	0
	591	59.2	9.10182E-002	7.40223E-006	0.00000E+000	9.09857E-002	0.00000E+000	7	...........	0
	594	59.5	9.40512E-002	7.30587E-006	0.00000E+000	9.39858E-002	0.00000E+000	7	...........	0
	597	59.8	9.70242E-002	7.43390E-006	0.00000E+000	9.69859E-002	0.00000E+000	7	...........	0
	600	60.1	1.00017E-001	7.57394E-006	0.00000E+000	9.99860E-002	0.00000E+000	7	...........	0
	603	60.4	1.03010E-001	-2.60485E-006	0.00000E+000	1.02986E-001	0.00000E+000	7	...........	0
	606	60.7	1.06023E-001	-1.49455E-006	0.00000E+000	1.05986E-001	0.00000E+000	7	...........	0
	609	61	1.09016E-001	-9.64071E-007	0.00000E+000	1.08986E-001	0.00000E+000	7	...........	0
	612	61.3	1.12019E-001	-6.56653E-007	0.00000E+000	1.11987E-001	0.00000E+000	7	...........	0
	615	61.6	1.15012E-001	-4.42594E-007	0.00000E+000	1.14987E-001	0.00000E+000	7	...........	0
	618	61.9	1.18035E-001	-2.69547E-007	0.00000E+000	1.17987E-001	0.00000E+000	7	...........	0
	621	62.2	1.21008E-001	-1.52181E-007	0.00000E+000	1.20987E-001	0.00000E+000	7	...........	0
	624	62.5	1.24021E-001	-8.51627E-008	0.00000E+000	1.23987E-001	0.00000E+000	7	...........	0
	627	62.8	1.27034E-001	-2.80671E-009	0.00000E+000	1.26987E-001	0.00000E+000	7	...........	0
	630	63.1	1.30017E-001	3.32032E-008	0.00000E+000	1.29987E-001	0.00000E+000	7	...........	0
	633	63.4	1.33030E-001	6.92131E-008	0.00000E+000	1.32987E-001	0.00000E+000	7	...........	0
	636	63.7	1.36033E-001	1.24228E-007	0.00000E+000	1.35988E-001	0.00000E+000	7	...........	0
	639	64	1.39026E-001	1.48568E-007	0.00000E+000	1.38988E-001	0.00000E+000	7	...........	0
	642	64.3	1.42009E-001	1.65906E-007	0.00000E+000	1.41988E-001	0.00000E+000	7	...........	0
	645	64.6	1.45022E-001	1.65906E-007	0.00000E+000	1.44988E-001	0.00000E+000	7	...........	0
	648	64.9	1.48025E-001	2.27257E-007	0.00000E+000	1.47988E-001	0.00000E+000	7	...........	0
	651	65.2	1.50998E-001	2.23589E-007	0.00000E+000	1.50988E-001	0.00000E+000	7	...........	0
	654	65.5	1.54021E-001	1.54997E-005	0.00000E+000	1.53988E-001	0.00000E+000	8	...........	0
	657	65.8	1.57024E-001	1.22561E-005	0.00000E+000	1.56988E-001	0.00000E+000	8	...........	0
	660	66.1	1.60017E-001	1.09260E-005	0.00000E+000	1.59988E-001	0.00000E+000	8	...........	0
	663	66.4	1.63010E-001	1.01727E-005	0.00000E+000	1.62989E-001	0.00000E+000	8	...........	0
	666	66.7	1.66033E-001	9.91930E-006	0.00000E+000	1.65989E-001	0.00000E+000	8	...........	0
	669	67	1.69016E-001	9.87263E-006	0.00000E+000	1.68989E-001	0.00000E+000	8	...........	0
	672	67.3	1.72019E-001	9.85263E-006	0.00000E+000	1.71989E-001	0.00000E+000	8	...........	0
	675	67.6	1.74992E-001	9.51594E-006	0.00000E+000	1.74989E-001	0.00000E+000	8	...........	0
	678	67.9	1.78005E-001	9.18591E-006	0.00000E+000	1.77989E-001	0.00000E+000	8	...........	0
	681	68.2	1.81018E-001	9.28926E-006	0.00000E+000	1.80989E-001	0.00000E+000	8	...........	0
	684	68.5	1.84021E-001	9.62595E-006	0.00000E+000	1.83989E-001	0.00000E+000	8	...........	0
	687	68.8	1.87004E-001	9.47260E-006	0.00000E+000	1.86990E-001	0.00000E+000	8	...........	0
	690	69.1	1.90027E-001	9.30592E-006	0.00000E+000	1.89990E-001	0.00000E+000	8	...........	0
	693	69.4	1.92990E-001	9.30259E-006	0.00000E+000	1.92990E-001	0.00000E+000	8	...........	0
	696	69.7	1.96013E-001	9.30259E-006	0.00000E+000	1.95990E-001	0.00000E+000	8	...........	0
	699	70	1.99006E-001	9.36593E-006	0.00000E+000	1.98990E-001	0.00000E+000	8	...........	0
	702	70.3	2.02009E-001	-1.86098E-006	0.00000E+000	2.01990E-001	0.00000E+000	7	...........	0
	705	70.6	2.05002E-001	-1.16713E-006	0.00000E+000	2.04990E-001	0.00000E+000	7	...........	0
	708	70.9	2.08005E-001	-7.71685E-007	0.00000E+000	2.07990E-001	0.00000E+000	7	...........	0
	711	71.2	2.11008E-001	-5.14947E-007	0.00000E+000	2.10991E-001	0.00000E+000	7	...........	0
	714	71.5	2.14011E-001	-3.41900E-007	0.00000E+000	2.13991E-001	0.00000E+000	7	...........	0
	717	71.8	2.17014E-001	-2.21200E-007	0.00000E+000	2.16991E-001	0.00000E+000	7	...........	0
	720	72.1	2.20017E-001	-1.64851E-007	0.00000E+000	2.19991E-001	0.00000E+000	7	...........	0
	723	72.4	2.23010E-001	-8.18284E-008	0.00000E+000	2.22991E-001	0.00000E+000	7	...........	0
	726	72.7	2.26013E-001	1.94112E-010	0.00000E+000	2.25991E-001	0.00000E+000	7	...........	0
	729	73	2.29006E-001	4.05385E-008	0.00000E+000	2.28991E-001	0.00000E+000	7	...........	0
	732	73.3	2.32029E-001	9.72208E-008	0.00000E+000	2.31991E-001	0.00000E+000	7	...........	0
	735	73.6	2.35012E-001	1.17226E-007	0.00000E+000	2.34992E-001	0.00000E+000	7	...........	0
	738	73.9	2.38025E-001	1.57571E-007	0.00000E+000	2.37992E-001	0.00000E+000	7	...........	0
	741	74.2	2.41018E-001	1.46568E-007	0.00000E+000	2.40992E-001	0.00000E+000	7	...........	0
	744	74.5	2.44020E-001	1.75909E-007	0.00000E+000	2.43992E-001	0.00000E+000	7	...........	0
	747	74.8	2.46993E-001	1.87246E-007	0.00000E+000	2.46992E-001	0.00000E+000	7	...........	0
	750	75.1	2.50006E-001	2.20921E-007	0.00000E+000	2.49992E-001	0.00000E+000	7	...........	0
	753	75.4	2.52989E-001	1.86066E-005	0.00000E+000	2.52992E-001	0.00000E+000	8	...........	0
	756	75.7	2.55952E-001	1.51763E-005	0.00000E+000	2.55992E-001	0.00000E+000	8	...........	0
	759	76	2.58975E-001	1.35362E-005	0.00000E+000	2.58993E-001	0.00000E+000	8	...........	0
	762	76.3	2.61968E-001	1.29762E-005	0.00000E+000	2.61993E-001	0.00000E+000	8	...........	0
	765	76.6	2.64961E-001	1.25128E-005	0.00000E+000	2.64993E-001	0.00000E+000	8	...........	0
	768	76.9	2.68055E-001	1.21661E-005	0.00000E+000	2.67993E-001	0.00000E+000	8	...........	0
	771	77.2	2.71158E-001	1.21095E-005	0.00000E+000	2.70993E-001	0.00000E+000	8	...........	0
	774	77.5	2.74161E-001	1.21661E-005	0.00000E+000	2.73993E-001	0.00000E+000	8	...........	0
	777	77.8	2.77164E-001	1.21561E-005	0.00000E+000	2.76993E-001	0.00000E+000	8	...........	0
	780	78.1	2.80167E-001	1.21895E-005	0.00000E+000	2.79993E-001	0.00000E+000	8	...........	0
	783	78.4	2.83170E-001	1.22595E-005	0.00000E+000	2.82993E-001	0.00000E+000	8	...........	0
	786	78.7	2.86273E-001	1.22695E-005	0.00000E+000	2.85994E-001	0.00000E+000	8	...........	0
	789	79	2.89076E-001	1.24195E-005	0.00000E+000	2.88994E-001	0.00000E+000	8	...........	0
	792	79.3	2.92079E-001	1.27628E-005	0.00000E+000	2.91994E-001	0.00000E+000	8	...........	0
	795	79.6	2.95182E-001	1.26828E-005	0.00000E+000	2.94994E-001	0.00000E+000	8	...........	0
	798	79.9	2.98185E-001	1.28762E-005	0.00000E+000	2.97994E-001	0.00000E+000	8	...........	0
	801	80.2	3.01188E-001	-2.10838E-006	0.00000E+000	3.00994E-001	0.00000E+000	7	...........	0
	804	80.5	3.04191E-001	-1.37785E-006	0.00000E+000	3.03994E-001	0.00000E+000	7	...........	0
	807	80.8	3.07194E-001	-8.99386E-007	0.00000E+000	3.06994E-001	0.00000E+000	7	...........	0
	810	81.1	3.10197E-001	-6.15975E-007	0.00000E+000	3.09995E-001	0.00000E+000	7	...........	0
	813	81.4	3.13100E-001	-3.97915E-007	0.00000E+000	3.12995E-001	0.00000E+000	7	...........	0
	816	81.7	3.16103E-001	-2.99888E-007	0.00000E+000	3.15995E-001	0.00000E+000	7	...........	0
	819	82	3.19106E-001	-2.06196E-007	0.00000E+000	3.18995E-001	0.00000E+000	7	...........	0
	822	82.3	3.22109E-001	-1.15504E-007	0.00000E+000	3.21995E-001	0.00000E+000	7	...........	0
	825	82.6	3.25112E-001	-4.78191E-008	0.00000E+000	3.24995E-001	0.00000E+000	7	...........	0
	828	82.9	3.28215E-001	9.19659E-009	0.00000E+000	3.27995E-001	0.00000E+000	7	...........	0
	831	83.2	3.31118E-001	3.55372E-008	0.00000E+000	3.30995E-001	0.00000E+000	7	...........	0
	834	83.5	3.34221E-001	8.82183E-008	0.00000E+000	3.33996E-001	0.00000E+000	7	...........	0
	837	83.8	3.37224E-001	1.01889E-007	0.00000E+000	3.36996E-001	0.00000E+000	7	...........	0
	840	84.1	3.40127E-001	1.27229E-007	0.00000E+000	3.39996E-001	0.00000E+000	7	...........	0
	843	84.4	3.43130E-001	1.64573E-007	0.00000E+000	3.42996E-001	0.00000E+000	7	...........	0
	846	84.7	3.46133E-001	1.89913E-007	0.00000E+000	3.45996E-001	0.00000E+000	7	...........	0
	849	85	3.49036E-001	1.90580E-007	0.00000E+000	3.48996E-001	0.00000E+000	7	...........	0
	852	85.3	3.52139E-001	2.09585E-007	0.00000E+000	3.51996E-001	0.00000E+000	7	...........	0
	855	85.6	3.55142E-001	2.00567E-005	0.00000E+000	3.54996E-001	0.00000E+000	8	...........	0
	858	85.9	3.58245E-001	1.73698E-005	0.00000E+000	3.57997E-001	0.00000E+000	8	...........	0
	861	86.2	3.61148E-001	1.61864E-005	0.00000E+000	3.60997E-001	0.00000E+000	8	...........	0
	864	86.5	3.64151E-001	1.57130E-005	0.00000E+000	3.63997E-001	0.00000E+000	8	...........	0
	867	86.8	3.67154E-001	1.55064E-005	0.00000E+000	3.66997E-001	0.00000E+000	8	...........	0
	870	87.1	3.70157E-001	1.56130E-005	0.00000E+000	3.69997E-001	0.00000E+000	8	...........	0
	873	87.4	3.73160E-001	1.59931E-005	0.00000E+000	3.72997E-001	0.00000E+000	8	...........	0
	876	87.7	3.76162E-001	1.54297E-005	0.00000E+000	3.75997E-001	0.00000E+000	8	...........	0
	879	88	3.79266E-001	1.54397E-005	0.00000E+000	3.78997E-001	0.00000E+000	8	...........	0
	882	88.3	3.82169E-001	1.54397E-005	0.00000E+000	3.81998E-001	0.00000E+000	8	...........	0
	885	88.6	3.85071E-001	1.57697E-005	0.00000E+000	3.84998E-001	0.00000E+000	8	...........	0
	888	88.9	3.88275E-001	1.57430E-005	0.00000E+000	3.87998E-001	0.00000E+000	8	...........	0
	891	89.2	3.91177E-001	1.60697E-005	0.00000E+000	3.90998E-001	0.00000E+000	8	...........	0
	894	89.5	3.94180E-001	1.62464E-005	0.00000E+000	3.93998E-001	0.00000E+000	8	...........	0
	897	89.8	3.97183E-001	1.63131E-005	0.00000E+000	3.96998E-001	0.00000E+000	8	...........	0
	900	90.1	4.00186E-001	1.65764E-005	0.00000E+000	3.99998E-001	0.00000E+000	8	...........	0
	903	90.4	4.03289E-001	-1.29148E-006	0.00000E+000	4.02998E-001	0.00000E+000	8	...........	0
	906	90.7	4.06292E-001	-1.24848E-006	0.00000E+000	4.05999E-001	0.00000E+000	7	...........	0
	909	91	4.09195E-001	-7.99359E-007	0.00000E+000	4.08999E-001	0.00000E+000	7	...........	0
	912	91.3	4.12298E-001	-5.49624E-007	0.00000E+000	4.11999E-001	0.00000E+000	7	...........	0
	915	91.6	4.15201E-001	-3.77243E-007	0.00000E+000	4.14999E-001	0.00000E+000	7	...........	0
	918	91.9	4.18104E-001	-2.22200E-007	0.00000E+000	4.17999E-001	0.00000E+000	7	...........	0
	921	92.2	4.21107E-001	-1.44846E-007	0.00000E+000	4.20999E-001	0.00000E+000	7	...........	0
	924	92.5	4.24210E-001	-7.14923E-008	0.00000E+000	4.23999E-001	0.00000E+000	7	...........	0
	927	92.8	4.27213E-001	-1.01421E-008	0.00000E+000	4.26999E-001	0.00000E+000	7	...........	0
	930	93.1	4.30216E-001	3.62040E-008	0.00000E+000	4.30000E-001	0.00000E+000	7	...........	0
	933	93.4	4.33219E-001	1.06557E-007	0.00000E+000	4.33000E-001	0.00000E+000	7	...........	0
	936	93.7	4.36222E-001	1.22228E-007	0.00000E+000	4.36000E-001	0.00000E+000	7	...........	0
	939	94	4.39225E-001	1.53903E-007	0.00000E+000	4.39000E-001	0.00000E+000	7	...........	0
	942	94.3	4.42128E-001	1.73242E-007	0.00000E+000	4.42000E-001	0.00000E+000	7	...........	0
	945	94.6	4.45231E-001	2.00916E-007	0.00000E+000	4.45000E-001	0.00000E+000	7	...........	0
	948	94.9	4.48234E-001	2.32258E-007	0.00000E+000	4.48000E-001	0.00000E+000	7	...........	0
	951	95.2	4.51137E-001	2.37926E-007	0.00000E+000	4.51000E-001	0.00000E+000	7	...........	0
	954	95.5	4.54140E-001	1.09265E-005	0.00000E+000	4.54001E-001	0.00000E+000	7	....ih..i..	0
	957	95.8	4.57143E-001	2.20768E-005	0.00000E+000	4.57001E-001	0.00000E+000	8	...........	0
	960	96.1	4.60146E-001	2.03634E-005	0.00000E+000	4.60001E-001	0.00000E+000	8	...........	0
	963	96.4	4.63149E-001	1.96633E-005	0.00000E+000	4.63001E-001	0.00000E+000	8	...........	0
	966	96.7	4.66252E-001	1.94000E-005	0.00000E+000	4.66001E-001	0.00000E+000	8	...........	0
	969	97	4.69255E-001	1.94366E-005	0.00000E+000	4.69001E-001	0.00000E+000	8	...........	0
	972	97.3	4.72158E-001	1.92033E-005	0.00000E+000	4.72001E-001	0.00000E+000	8	...........	0
	975	97.6	4.75261E-001	1.91633E-005	0.00000E+000	4.75001E-001	0.00000E+000	8	...........	0
	978	97.9	4.78264E-001	1.91333E-005	0.00000E+000	4.78001E-001	0.00000E+000	8	...........	0
	981	98.2	4.81167E-001	1.91566E-005	0.00000E+000	4.81002E-001	0.00000E+000	8	...........	0
	984	98.5	4.84170E-001	1.93333E-005	0.00000E+000	4.84002E-001	0.00000E+000	8	...........	0
	987	98.8	4.87173E-001	1.92333E-005	0.00000E+000	4.87002E-001	0.00000E+000	8	...........	0
	990	99.1	4.90176E-001	1.93266E-005	0.00000E+000	4.90002E-001	0.00000E+000	8	...........	0
	993	99.4	4.93179E-001	1.94266E-005	0.00000E+000	4.93002E-001	0.00000E+000	8	...........	0
	996	99.7	4.96182E-001	1.34429E-005	0.00000E+000	4.96002E-001	0.00000E+000	8	...........	0
	999	100	4.99185E-001	1.95300E-005	0.00000E+000	4.99002E-001	0.00000E+000	8	...........	0
	1002	100.3	5.02188E-001	1.95233E-005	0.00000E+000	5.02002E-001	0.00000E+000	8	...........	0
	1005	100.6	5.05191E-001	-1.10778E-006	0.00000E+000	5.05003E-001	0.00000E+000	7	...........	0
	1008	100.9	5.08194E-001	-7.32674E-007	0.00000E+000	5.08003E-001	0.00000E+000	7	...........	0
	1011	101.2	5.11197E-001	-5.15281E-007	0.00000E+000	5.11003E-001	0.00000E+000	7	...........	0
	1014	101.5	5.14300E-001	-3.40566E-007	0.00000E+000	5.14003E-001	0.00000E+000	7	...........	0
	1017	101.8	5.17203E-001	-1.94859E-007	0.00000E+000	5.17003E-001	0.00000E+000	7	...........	0
	1020	102.1	5.20206E-001	-1.13170E-007	0.00000E+000	5.20003E-001	0.00000E+000	7	...........	0
	1023	102.4	5.23209E-001	-1.11423E-008	0.00000E+000	5.23003E-001	0.00000E+000	7	...........	0
	1026	102.7	5.26212E-001	5.58761E-008	0.00000E+000	5.26003E-001	0.00000E+000	7	...........	0
	1029	103	5.29215E-001	9.05523E-008	0.00000E+000	5.29004E-001	0.00000E+000	7	...........	0
	1032	103.3	5.32118E-001	1.32564E-007	0.00000E+000	5.32004E-001	0.00000E+000	7	...........	0
	1035	103.6	5.35221E-001	1.63572E-007	0.00000E+000	5.35004E-001	0.00000E+000	7	...........	0
	1038	103.9	5.38224E-001	1.81577E-007	0.00000E+000	5.38004E-001	0.00000E+000	7	...........	0
	1041	104.2	5.41227E-001	2.40927E-007	0.00000E+000	5.41004E-001	0.00000E+000	7	...........	0
	1044	104.5	5.44230E-001	2.64267E-007	0.00000E+000	5.44004E-001	0.00000E+000	7	...........	0
	1047	104.8	5.47133E-001	2.89607E-007	0.00000E+000	5.47004E-001	0.00000E+000	7	...........	0
	1050	105.1	5.50236E-001	3.14280E-007	0.00000E+000	5.50004E-001	0.00000E+000	7	...........	0
	1053	105.4	5.53339E-001	3.55959E-007	0.00000E+000	5.53005E-001	0.00000E+000	7	...........	0
	1056	105.7	5.56242E-001	2.63271E-005	0.00000E+000	5.56005E-001	0.00000E+000	8	...........	0
	1059	106	5.59245E-001	2.44670E-005	0.00000E+000	5.59005E-001	0.00000E+000	8	...........	0
	1062	106.3	5.62248E-001	2.36536E-005	0.00000E+000	5.62005E-001	0.00000E+000	8	...........	0
	1065	106.6	5.65251E-001	2.29469E-005	0.00000E+000	5.65005E-001	0.00000E+000	8	...........	0
	1068	106.9	5.68254E-001	2.27869E-005	0.00000E+000	5.68005E-001	0.00000E+000	8	...........	0
	1071	107.2	5.71257E-001	2.27569E-005	0.00000E+000	5.71005E-001	0.00000E+000	8	...........	0
	1074	107.5	5.74260E-001	2.26469E-005	0.00000E+000	5.74005E-001	0.00000E+000	8	...........	0
	1077	107.8	5.77263E-001	2.26402E-005	0.00000E+000	5.77006E-001	0.00000E+000	8	...........	0
	1080	108.1	5.80266E-001	2.28169E-005	0.00000E+000	5.80006E-001	0.00000E+000	8	...........	0
	1083	108.4	5.83269E-001	2.27135E-005	0.00000E+000	5.83006E-001	0.00000E+000	8	...........	0
	1086	108.7	5.86272E-001	2.28035E-005	0.00000E+000	5.86006E-001	0.00000E+000	8	...........	0
	1089	109	5.89175E-001	2.25568E-005	0.00000E+000	5.89006E-001	0.00000E+000	8	...........	0
	1092	109.3	5.92278E-001	2.26469E-005	0.00000E+000	5.92006E-001	0.00000E+000	8	...........	0
	1095	109.6	5.95281E-001	2.30869E-005	0.00000E+000	5.95006E-001	0.00000E+000	8	...........	0
	1098	109.9	5.98284E-001	2.29869E-005	0.00000E+000	5.98006E-001	0.00000E+000	8	...........	0
	1100	110.1	6.00085E-001	2.25202E-005	0.00000E+000	6.00006E-001	0.00000E+000	8	...........	0