File: LSV ZFO/ZFO_h200_dark_reator2.DTA
EXPLAIN
TAG	LSV
TITLE	LABEL	Linear Sweep Voltammetry	Test &Identifier
DATE	LABEL	7/5/2024	Date
TIME	LABEL	18:04:36	Time
NOTES	NOTES	1	&Notes...

PSTAT	PSTAT	L3FNano	Potentiostat
VINIT	POTEN	-5.00000E-001	F	&Initial E (V)
VFINAL	POTEN	6.00000E-001	F	&Final E (V)
SCANRATE	QUANT	9.99998E+000	&Scan Rate (mV/s)
STEPSIZE	QUANT	1.00000E+000	St&ep Size (mV)
IMODE	SELECTOR	0	I/E Range &Mode
IRANGE	QUANT	1.00000E+001	&Max Current (mA)
AREA	QUANT	1.00000E+000	Electrode &Area (cm^2)
ELECTRODETYPE	SELECTOR	0	Electrode Type
STRIPPING	TOGGLE	F	Used for Stripping
POLARITY	TOGGLE	F	Signal Polarity
CONDIT	TWOPARAM	F	1.50000E+001	0.00000E+000	Conditionin&g	Time(s)	E(V)
DELAY	TWOPARAM	F	3.00000E+001	0.00000E+000	Init. De&lay	Time(s)	Stab.(mV/s)
EQDELAY	QUANT	5.00000E+000	Equil. &Time (s)
IRCOMP	SELECTOR	0	IRCom&p
PFCOR	QUANT	5.00000E+001	PF Corr. (ohm)
SAMPLINGMODE	SELECTOR	0	Sampling &Mode
EOC	QUANT	0	Open Circuit (V)
PSTATMODEL	IQUANT	48	Pstat Model
PSTATSECTION	LABEL	IFC1000-07082	Pstat Section
PSTATSERIALNO	LABEL	07082	Pstat Serial Number
CTRLMODE	IQUANT	1	Control Mode
IESTAB	IQUANT	2	I/E Stability
CASPEED	IQUANT	2	Control Amp Speed
CONVENTION	IQUANT	1	Current Convention
ICHRANGE	IQUANT	2	Ich Range
ICHRANGEMODE	TOGGLE	F	Ich Auto Range
ICHOFFSETENABLE	TOGGLE	F	Ich Offset Enable
ICHOFFSET	QUANT	0	Ich Offset (V)
ICHFILTER	IQUANT	3	Ich Filter
VCHRANGE	IQUANT	2	Vch Range
VCHRANGEMODE	TOGGLE	T	Vch Auto Range
VCHOFFSETENABLE	TOGGLE	F	Vch Offset Enable
VCHOFFSET	QUANT	0	Vch Offset (V)
VCHFILTER	IQUANT	3	Vch Filter
IERANGELOWERLIMIT	IQUANT	4	I/E Range Lower Limit
IERANGEMODE	TOGGLE	T	I/E AutoRange
IERANGE	IQUANT	11	I/E Range
ACHSELECT	IQUANT	4	Ach Select
CABLEID	IQUANT	14	Cable ID
DCCALDATE	LABEL	7/3/2024	DC Calibration Date
ACCALDATE	LABEL	7/3/2024	AC Calibration Date
FRAMEWORKVERSION	QUANT	6.24	Framework Version
INSTRUMENTVERSION	LABEL	3.28	Instrument Version
CURVE	TABLE	1101
	Pt	T	Vf	Im	Vu	Sig	Ach	IERange	Over	Cycle
	#	s	V vs. Ref.	A	V	V	V	#	bits	#
	0	0.1	-5.00110E-001	-4.71743E-006	0.00000E+000	-4.99988E-001	0.00000E+000	11	...........	0
	3	0.4	-4.97007E-001	-7.84527E-006	0.00000E+000	-4.96988E-001	0.00000E+000	8	...........	0
	6	0.7	-4.94104E-001	-7.55621E-006	0.00000E+000	-4.93988E-001	0.00000E+000	7	...........	0
	9	1	-4.91101E-001	-7.01007E-006	0.00000E+000	-4.90988E-001	0.00000E+000	7	...........	0
	12	1.3	-4.88098E-001	-6.64596E-006	0.00000E+000	-4.87988E-001	0.00000E+000	7	...........	0
	15	1.6	-4.84995E-001	-6.12916E-006	0.00000E+000	-4.84988E-001	0.00000E+000	7	...........	0
	18	1.9	-4.82092E-001	-5.79873E-006	0.00000E+000	-4.81988E-001	0.00000E+000	7	...........	0
	21	2.2	-4.78989E-001	-5.51899E-006	0.00000E+000	-4.78988E-001	0.00000E+000	7	...........	0
	24	2.5	-4.76086E-001	-5.13988E-006	0.00000E+000	-4.75987E-001	0.00000E+000	7	...........	0
	27	2.8	-4.73083E-001	-4.86247E-006	0.00000E+000	-4.72987E-001	0.00000E+000	7	...........	0
	30	3.1	-4.70080E-001	-4.46203E-006	0.00000E+000	-4.69987E-001	0.00000E+000	7	...........	0
	33	3.4	-4.66977E-001	-4.08960E-006	0.00000E+000	-4.66987E-001	0.00000E+000	7	...........	0
	36	3.7	-4.63974E-001	-3.90421E-006	0.00000E+000	-4.63987E-001	0.00000E+000	7	...........	0
	39	4	-4.61071E-001	-3.63414E-006	0.00000E+000	-4.60987E-001	0.00000E+000	7	...........	0
	42	4.3	-4.58068E-001	-3.35873E-006	0.00000E+000	-4.57987E-001	0.00000E+000	7	...........	0
	45	4.6	-4.55065E-001	-3.14800E-006	0.00000E+000	-4.54987E-001	0.00000E+000	7	...........	0
	48	4.9	-4.52062E-001	-2.96895E-006	0.00000E+000	-4.51987E-001	0.00000E+000	7	...........	0
	51	5.2	-4.49059E-001	-2.75923E-006	0.00000E+000	-4.48986E-001	0.00000E+000	7	...........	0
	54	5.5	-4.45956E-001	-2.65187E-006	0.00000E+000	-4.45986E-001	0.00000E+000	7	...........	0
	57	5.8	-4.43053E-001	-2.53183E-006	0.00000E+000	-4.42986E-001	0.00000E+000	7	...........	0
	60	6.1	-4.39950E-001	-2.36112E-006	0.00000E+000	-4.39986E-001	0.00000E+000	7	...........	0
	63	6.4	-4.37047E-001	-2.26009E-006	0.00000E+000	-4.36986E-001	0.00000E+000	7	...........	0
	66	6.7	-4.34044E-001	-2.00702E-006	0.00000E+000	-4.33986E-001	0.00000E+000	7	...........	0
	69	7	-4.31041E-001	-1.97068E-006	0.00000E+000	-4.30986E-001	0.00000E+000	7	...........	0
	72	7.3	-4.28138E-001	-1.74462E-006	0.00000E+000	-4.27986E-001	0.00000E+000	7	...........	0
	75	7.6	-4.25035E-001	-1.67560E-006	0.00000E+000	-4.24985E-001	0.00000E+000	7	...........	0
	78	7.9	-4.22132E-001	-1.48388E-006	0.00000E+000	-4.21985E-001	0.00000E+000	7	...........	0
	81	8.2	-4.19129E-001	-1.32050E-006	0.00000E+000	-4.18985E-001	0.00000E+000	7	...........	0
	84	8.5	-4.15926E-001	-1.26115E-006	0.00000E+000	-4.15985E-001	0.00000E+000	7	...........	0
	87	8.8	-4.13023E-001	-1.02742E-006	0.00000E+000	-4.12985E-001	0.00000E+000	7	...........	0
	90	9.1	-4.10120E-001	-1.02142E-006	0.00000E+000	-4.09985E-001	0.00000E+000	7	...........	0
	93	9.4	-4.07017E-001	-9.41065E-007	0.00000E+000	-4.06985E-001	0.00000E+000	7	...........	0
	96	9.7	-4.04114E-001	-7.13002E-007	0.00000E+000	-4.03985E-001	0.00000E+000	7	...........	0
	99	10	-4.01011E-001	-7.10001E-007	0.00000E+000	-4.00984E-001	0.00000E+000	7	...........	0
	102	10.3	-3.98008E-001	-5.12947E-007	0.00000E+000	-3.97984E-001	0.00000E+000	7	...........	0
	105	10.6	-3.94905E-001	-5.88634E-007	0.00000E+000	-3.94984E-001	0.00000E+000	7	...........	0
	108	10.9	-3.92002E-001	-4.88273E-007	0.00000E+000	-3.91984E-001	0.00000E+000	7	...........	0
	111	11.2	-3.89099E-001	-3.10224E-007	0.00000E+000	-3.88984E-001	0.00000E+000	7	...........	0
	114	11.5	-3.86096E-001	-4.01916E-007	0.00000E+000	-3.85984E-001	0.00000E+000	7	...........	0
	117	11.8	-3.82993E-001	-1.63184E-007	0.00000E+000	-3.82984E-001	0.00000E+000	7	...........	0
	120	12.1	-3.79990E-001	-2.19866E-007	0.00000E+000	-3.79984E-001	0.00000E+000	7	...........	0
	123	12.4	-3.77087E-001	-2.06529E-007	0.00000E+000	-3.76983E-001	0.00000E+000	7	...........	0
	126	12.7	-3.73984E-001	6.42117E-008	0.00000E+000	-3.73983E-001	0.00000E+000	7	...........	0
	129	13	-3.71081E-001	-1.00834E-007	0.00000E+000	-3.70983E-001	0.00000E+000	7	...........	0
	132	13.3	-3.68078E-001	9.05523E-008	0.00000E+000	-3.67983E-001	0.00000E+000	7	...........	0
	135	13.6	-3.65075E-001	-7.47466E-009	0.00000E+000	-3.64983E-001	0.00000E+000	7	...........	0
	138	13.9	-3.62072E-001	5.95438E-008	0.00000E+000	-3.61983E-001	0.00000E+000	7	...........	0
	141	14.2	-3.59069E-001	1.97582E-007	0.00000E+000	-3.58983E-001	0.00000E+000	7	...........	0
	144	14.5	-3.56066E-001	1.01222E-007	0.00000E+000	-3.55983E-001	0.00000E+000	7	...........	0
	147	14.8	-3.52963E-001	2.21255E-007	0.00000E+000	-3.52982E-001	0.00000E+000	7	...........	0
	150	15.1	-3.49960E-001	1.95581E-007	0.00000E+000	-3.49982E-001	0.00000E+000	7	...........	0
	153	15.4	-3.47157E-001	2.07251E-007	0.00000E+000	-3.46982E-001	0.00000E+000	7	...........	0
	156	15.7	-3.44054E-001	1.96581E-007	0.00000E+000	-3.43982E-001	0.00000E+000	7	...........	0
	159	16	-3.41051E-001	2.66267E-007	0.00000E+000	-3.40982E-001	0.00000E+000	7	...........	0
	162	16.3	-3.38048E-001	3.71296E-007	0.00000E+000	-3.37982E-001	0.00000E+000	7	...........	0
	165	16.6	-3.35045E-001	2.38926E-007	0.00000E+000	-3.34982E-001	0.00000E+000	7	...........	0
	168	16.9	-3.31942E-001	2.39593E-007	0.00000E+000	-3.31982E-001	0.00000E+000	7	...........	0
	171	17.2	-3.29039E-001	2.80604E-007	0.00000E+000	-3.28982E-001	0.00000E+000	7	...........	0
	174	17.5	-3.26036E-001	3.11280E-007	0.00000E+000	-3.25981E-001	0.00000E+000	7	...........	0
	177	17.8	-3.23134E-001	3.97637E-007	0.00000E+000	-3.22981E-001	0.00000E+000	7	...........	0
	180	18.1	-3.20030E-001	2.89607E-007	0.00000E+000	-3.19981E-001	0.00000E+000	7	...........	0
	183	18.4	-3.17027E-001	2.88940E-007	0.00000E+000	-3.16981E-001	0.00000E+000	7	...........	0
	186	18.7	-3.13924E-001	3.27951E-007	0.00000E+000	-3.13981E-001	0.00000E+000	7	...........	0
	189	19	-3.11122E-001	3.19949E-007	0.00000E+000	-3.10981E-001	0.00000E+000	7	...........	0
	192	19.3	-3.08018E-001	4.02971E-007	0.00000E+000	-3.07981E-001	0.00000E+000	7	...........	0
	195	19.6	-3.05116E-001	4.27311E-007	0.00000E+000	-3.04981E-001	0.00000E+000	7	...........	0
	198	19.9	-3.02113E-001	4.83994E-007	0.00000E+000	-3.01980E-001	0.00000E+000	7	...........	0
	201	20.2	-2.99010E-001	5.18336E-007	0.00000E+000	-2.98980E-001	0.00000E+000	7	...........	0
	204	20.5	-2.96007E-001	5.69017E-007	0.00000E+000	-2.95980E-001	0.00000E+000	7	...........	0
	207	20.8	-2.93004E-001	5.69017E-007	0.00000E+000	-2.92980E-001	0.00000E+000	7	...........	0
	210	21.1	-2.90101E-001	5.52679E-007	0.00000E+000	-2.89980E-001	0.00000E+000	7	...........	0
	213	21.4	-2.86998E-001	7.30728E-007	0.00000E+000	-2.86980E-001	0.00000E+000	7	...........	0
	216	21.7	-2.83995E-001	6.69378E-007	0.00000E+000	-2.83980E-001	0.00000E+000	7	...........	0
	219	22	-2.80992E-001	6.04360E-007	0.00000E+000	-2.80980E-001	0.00000E+000	7	...........	0
	222	22.3	-2.77989E-001	6.56708E-007	0.00000E+000	-2.77979E-001	0.00000E+000	7	...........	0
	225	22.6	-2.75086E-001	6.52373E-007	0.00000E+000	-2.74979E-001	0.00000E+000	7	...........	0
	228	22.9	-2.71983E-001	6.52373E-007	0.00000E+000	-2.71979E-001	0.00000E+000	7	...........	0
	231	23.2	-2.68980E-001	6.62709E-007	0.00000E+000	-2.68979E-001	0.00000E+000	7	...........	0
	234	23.5	-2.66077E-001	6.60042E-007	0.00000E+000	-2.65979E-001	0.00000E+000	7	...........	0
	237	23.8	-2.62974E-001	7.26394E-007	0.00000E+000	-2.62979E-001	0.00000E+000	7	...........	0
	240	24.1	-2.60071E-001	6.20365E-007	0.00000E+000	-2.59979E-001	0.00000E+000	7	...........	0
	243	24.4	-2.56968E-001	6.35702E-007	0.00000E+000	-2.56979E-001	0.00000E+000	7	...........	0
	246	24.7	-2.54065E-001	7.44732E-007	0.00000E+000	-2.53978E-001	0.00000E+000	7	...........	0
	249	25	-2.51062E-001	6.96719E-007	0.00000E+000	-2.50978E-001	0.00000E+000	7	...........	0
	252	25.3	-2.47959E-001	6.89717E-007	0.00000E+000	-2.47978E-001	0.00000E+000	7	...........	0
	255	25.6	-2.45056E-001	6.50706E-007	0.00000E+000	-2.44978E-001	0.00000E+000	7	...........	0
	258	25.9	-2.41963E-001	7.46066E-007	0.00000E+000	-2.41978E-001	0.00000E+000	7	...........	0
	261	26.2	-2.38880E-001	7.82742E-007	0.00000E+000	-2.38978E-001	0.00000E+000	7	...........	0
	264	26.5	-2.35937E-001	7.24726E-007	0.00000E+000	-2.35978E-001	0.00000E+000	7	...........	0
	267	26.8	-2.32954E-001	8.37758E-007	0.00000E+000	-2.32978E-001	0.00000E+000	7	...........	0
	270	27.1	-2.29931E-001	8.06082E-007	0.00000E+000	-2.29977E-001	0.00000E+000	7	...........	0
	273	27.4	-2.26938E-001	8.27755E-007	0.00000E+000	-2.26977E-001	0.00000E+000	7	...........	0
	276	27.7	-2.23925E-001	8.30756E-007	0.00000E+000	-2.23977E-001	0.00000E+000	7	...........	0
	279	28	-2.20922E-001	8.48760E-007	0.00000E+000	-2.20977E-001	0.00000E+000	7	...........	0
	282	28.3	-2.17929E-001	8.72767E-007	0.00000E+000	-2.17977E-001	0.00000E+000	7	...........	0
	285	28.6	-2.14946E-001	8.90772E-007	0.00000E+000	-2.14977E-001	0.00000E+000	7	...........	0
	288	28.9	-2.11963E-001	8.72434E-007	0.00000E+000	-2.11977E-001	0.00000E+000	7	...........	0
	291	29.2	-2.08970E-001	9.25115E-007	0.00000E+000	-2.08977E-001	0.00000E+000	7	...........	0
	294	29.5	-2.05907E-001	9.41453E-007	0.00000E+000	-2.05976E-001	0.00000E+000	7	...........	0
	297	29.8	-2.02954E-001	9.25782E-007	0.00000E+000	-2.02976E-001	0.00000E+000	7	...........	0
	300	30.1	-1.99931E-001	9.56123E-007	0.00000E+000	-1.99976E-001	0.00000E+000	7	...........	0
	303	30.4	-1.96948E-001	1.00047E-006	0.00000E+000	-1.96976E-001	0.00000E+000	7	...........	0
	306	30.7	-1.93935E-001	9.77129E-007	0.00000E+000	-1.93976E-001	0.00000E+000	7	...........	0
	309	31	-1.90942E-001	9.83131E-007	0.00000E+000	-1.90976E-001	0.00000E+000	7	...........	0
	312	31.3	-1.87929E-001	9.67793E-007	0.00000E+000	-1.87976E-001	0.00000E+000	7	...........	0
	315	31.6	-1.84967E-001	9.71794E-007	0.00000E+000	-1.84976E-001	0.00000E+000	7	...........	0
	318	31.9	-1.81954E-001	1.04515E-006	0.00000E+000	-1.81975E-001	0.00000E+000	7	...........	0
	321	32.2	-1.78920E-001	1.01614E-006	0.00000E+000	-1.78975E-001	0.00000E+000	7	...........	0
	324	32.5	-1.75928E-001	9.79130E-007	0.00000E+000	-1.75975E-001	0.00000E+000	7	...........	0
	327	32.8	-1.72935E-001	1.00547E-006	0.00000E+000	-1.72975E-001	0.00000E+000	7	...........	0
	330	33.1	-1.69902E-001	9.91133E-007	0.00000E+000	-1.69975E-001	0.00000E+000	7	...........	0
	333	33.4	-1.67019E-001	1.10483E-006	0.00000E+000	-1.67025E-001	0.00000E+000	7	...........	0
	336	33.7	-1.63946E-001	1.03781E-006	0.00000E+000	-1.64025E-001	0.00000E+000	7	...........	0
	339	34	-1.61003E-001	1.00414E-006	0.00000E+000	-1.61025E-001	0.00000E+000	7	...........	0
	342	34.3	-1.58000E-001	1.08549E-006	0.00000E+000	-1.58025E-001	0.00000E+000	7	...........	0
	345	34.6	-1.54987E-001	1.09349E-006	0.00000E+000	-1.55024E-001	0.00000E+000	7	...........	0
	348	34.9	-1.52024E-001	1.16218E-006	0.00000E+000	-1.52024E-001	0.00000E+000	7	...........	0
	351	35.2	-1.49001E-001	1.06515E-006	0.00000E+000	-1.49024E-001	0.00000E+000	7	...........	0
	354	35.5	-1.46048E-001	1.11017E-006	0.00000E+000	-1.46024E-001	0.00000E+000	7	...........	0
	357	35.8	-1.43015E-001	1.09216E-006	0.00000E+000	-1.43024E-001	0.00000E+000	7	...........	0
	360	36.1	-1.40032E-001	1.07082E-006	0.00000E+000	-1.40024E-001	0.00000E+000	7	...........	0
	363	36.4	-1.37009E-001	1.15018E-006	0.00000E+000	-1.37024E-001	0.00000E+000	7	...........	0
	366	36.7	-1.33996E-001	1.08483E-006	0.00000E+000	-1.34024E-001	0.00000E+000	7	...........	0
	369	37	-1.31003E-001	1.19786E-006	0.00000E+000	-1.31023E-001	0.00000E+000	7	...........	0
	372	37.3	-1.28030E-001	1.13751E-006	0.00000E+000	-1.28023E-001	0.00000E+000	7	...........	0
	375	37.6	-1.24997E-001	1.07716E-006	0.00000E+000	-1.25023E-001	0.00000E+000	7	...........	0
	378	37.9	-1.22014E-001	1.19786E-006	0.00000E+000	-1.22023E-001	0.00000E+000	7	...........	0
	381	38.2	-1.19021E-001	1.13017E-006	0.00000E+000	-1.19023E-001	0.00000E+000	7	...........	0
	384	38.5	-1.16008E-001	1.23387E-006	0.00000E+000	-1.16023E-001	0.00000E+000	7	...........	0
	387	38.8	-1.13025E-001	1.14317E-006	0.00000E+000	-1.13023E-001	0.00000E+000	7	...........	0
	390	39.1	-1.10012E-001	1.13851E-006	0.00000E+000	-1.10023E-001	0.00000E+000	7	...........	0
	393	39.4	-1.07029E-001	1.23120E-006	0.00000E+000	-1.07022E-001	0.00000E+000	7	...........	0
	396	39.7	-1.04016E-001	1.18585E-006	0.00000E+000	-1.04022E-001	0.00000E+000	7	...........	0
	399	40	-1.00983E-001	1.24987E-006	0.00000E+000	-1.01022E-001	0.00000E+000	7	...........	0
	402	40.3	-9.79999E-002	1.19619E-006	0.00000E+000	-9.80221E-002	0.00000E+000	7	...........	0
	405	40.6	-9.49969E-002	1.21253E-006	0.00000E+000	-9.50219E-002	0.00000E+000	7	...........	0
	408	40.9	-9.20040E-002	1.30789E-006	0.00000E+000	-9.20218E-002	0.00000E+000	7	...........	0
	411	41.2	-8.90210E-002	1.19652E-006	0.00000E+000	-8.90217E-002	0.00000E+000	7	...........	0
	414	41.5	-8.60681E-002	1.26654E-006	0.00000E+000	-8.60216E-002	0.00000E+000	7	...........	0
	417	41.8	-8.30450E-002	1.23220E-006	0.00000E+000	-8.30214E-002	0.00000E+000	7	...........	0
	420	42.1	-8.00220E-002	1.22220E-006	0.00000E+000	-8.00213E-002	0.00000E+000	7	...........	0
	423	42.4	-7.69990E-002	1.31189E-006	0.00000E+000	-7.70212E-002	0.00000E+000	7	...........	0
	426	42.7	-7.39960E-002	1.22086E-006	0.00000E+000	-7.40211E-002	0.00000E+000	7	...........	0
	429	43	-7.10031E-002	1.33023E-006	0.00000E+000	-7.10210E-002	0.00000E+000	7	...........	0
	432	43.3	-6.80301E-002	1.26654E-006	0.00000E+000	-6.80208E-002	0.00000E+000	7	...........	0
	435	43.6	-6.50371E-002	1.32089E-006	0.00000E+000	-6.50207E-002	0.00000E+000	7	...........	0
	438	43.9	-6.20141E-002	1.25287E-006	0.00000E+000	-6.20206E-002	0.00000E+000	7	...........	0
	441	44.2	-5.90311E-002	1.23387E-006	0.00000E+000	-5.90205E-002	0.00000E+000	7	...........	0
	444	44.5	-5.60282E-002	1.28855E-006	0.00000E+000	-5.60203E-002	0.00000E+000	7	...........	0
	447	44.8	-5.30051E-002	1.19919E-006	0.00000E+000	-5.30202E-002	0.00000E+000	7	...........	0
	450	45.1	-5.00022E-002	1.21186E-006	0.00000E+000	-5.00201E-002	0.00000E+000	7	...........	0
	453	45.4	-4.70092E-002	1.18852E-006	0.00000E+000	-4.70200E-002	0.00000E+000	7	...........	0
	456	45.7	-4.39962E-002	1.20186E-006	0.00000E+000	-4.40199E-002	0.00000E+000	7	...........	0
	459	46	-4.09632E-002	1.21786E-006	0.00000E+000	-4.10197E-002	0.00000E+000	7	...........	0
	462	46.3	-3.80302E-002	1.15518E-006	0.00000E+000	-3.80196E-002	0.00000E+000	7	...........	0
	465	46.6	-3.49972E-002	1.22320E-006	0.00000E+000	-3.50195E-002	0.00000E+000	7	...........	0
	468	46.9	-3.20343E-002	1.15551E-006	0.00000E+000	-3.20194E-002	0.00000E+000	7	...........	0
	471	47.2	-2.90413E-002	1.13517E-006	0.00000E+000	-2.90192E-002	0.00000E+000	7	...........	0
	474	47.5	-2.60183E-002	1.21386E-006	0.00000E+000	-2.60191E-002	0.00000E+000	7	...........	0
	477	47.8	-2.29840E-002	1.15218E-006	0.00000E+000	-2.30190E-002	0.00000E+000	7	...........	0
	480	48.1	-2.00341E-002	1.23287E-006	0.00000E+000	-2.00189E-002	0.00000E+000	7	...........	0
	483	48.4	-1.70181E-002	1.19686E-006	0.00000E+000	-1.70187E-002	0.00000E+000	7	...........	0
	486	48.7	-1.40051E-002	1.22020E-006	0.00000E+000	-1.40186E-002	0.00000E+000	7	...........	0
	489	49	-1.10231E-002	1.24787E-006	0.00000E+000	-1.10185E-002	0.00000E+000	7	...........	0
	492	49.3	-8.00211E-003	1.24587E-006	0.00000E+000	-8.01838E-003	0.00000E+000	7	...........	0
	495	49.6	-5.01514E-003	1.32889E-006	0.00000E+000	-5.01826E-003	0.00000E+000	7	...........	0
	498	49.9	-2.04018E-003	1.33289E-006	0.00000E+000	-2.01814E-003	0.00000E+000	7	...........	0
	501	50.2	9.60809E-004	1.33023E-006	0.00000E+000	9.81987E-004	0.00000E+000	7	...........	0
	504	50.5	3.97181E-003	1.38991E-006	0.00000E+000	3.98211E-003	0.00000E+000	7	...........	0
	507	50.8	6.96779E-003	1.39458E-006	0.00000E+000	6.98223E-003	0.00000E+000	7	...........	0
	510	51.1	9.96978E-003	1.36457E-006	0.00000E+000	9.98235E-003	0.00000E+000	7	...........	0
	513	51.4	1.29718E-002	1.40691E-006	0.00000E+000	1.29825E-002	0.00000E+000	7	...........	0
	516	51.7	1.59517E-002	1.38524E-006	0.00000E+000	1.59826E-002	0.00000E+000	7	...........	0
	519	52	1.89637E-002	1.44192E-006	0.00000E+000	1.89827E-002	0.00000E+000	7	...........	0
	522	52.3	2.19837E-002	1.31722E-006	0.00000E+000	2.19828E-002	0.00000E+000	7	...........	0
	525	52.6	2.49397E-002	1.34390E-006	0.00000E+000	2.49830E-002	0.00000E+000	7	...........	0
	528	52.9	2.79354E-002	1.20553E-006	0.00000E+000	2.79831E-002	0.00000E+000	7	...........	0
	531	53.2	3.09684E-002	1.20519E-006	0.00000E+000	3.09832E-002	0.00000E+000	7	...........	0
	534	53.5	3.40215E-002	1.18519E-006	0.00000E+000	3.39833E-002	0.00000E+000	7	...........	0
	537	53.8	3.69944E-002	1.13351E-006	0.00000E+000	3.69835E-002	0.00000E+000	7	...........	0
	540	54.1	3.99774E-002	1.17785E-006	0.00000E+000	3.99836E-002	0.00000E+000	7	...........	0
	543	54.4	4.29604E-002	1.14484E-006	0.00000E+000	4.29837E-002	0.00000E+000	7	...........	0
	546	54.7	4.59233E-002	1.16718E-006	0.00000E+000	4.59838E-002	0.00000E+000	7	...........	0
	549	55	4.89363E-002	1.14951E-006	0.00000E+000	4.89840E-002	0.00000E+000	7	...........	0
	552	55.3	5.20094E-002	1.13584E-006	0.00000E+000	5.19841E-002	0.00000E+000	7	...........	0
	555	55.6	5.49823E-002	1.13284E-006	0.00000E+000	5.49842E-002	0.00000E+000	7	...........	0
	558	55.9	5.79553E-002	1.21353E-006	0.00000E+000	5.79843E-002	0.00000E+000	7	...........	0
	561	56.2	6.09483E-002	1.32789E-006	0.00000E+000	6.09844E-002	0.00000E+000	7	...........	0
	564	56.5	6.39513E-002	1.31922E-006	0.00000E+000	6.39846E-002	0.00000E+000	7	...........	0
	567	56.8	6.69142E-002	1.44426E-006	0.00000E+000	6.69847E-002	0.00000E+000	7	...........	0
	570	57.1	6.99773E-002	1.36490E-006	0.00000E+000	6.99848E-002	0.00000E+000	7	...........	0
	573	57.4	7.30203E-002	1.34890E-006	0.00000E+000	7.29849E-002	0.00000E+000	7	...........	0
	576	57.7	7.59933E-002	1.24954E-006	0.00000E+000	7.59851E-002	0.00000E+000	7	...........	0
	579	58	7.89862E-002	1.08116E-006	0.00000E+000	7.89852E-002	0.00000E+000	7	...........	0
	582	58.3	8.19992E-002	1.03881E-006	0.00000E+000	8.19853E-002	0.00000E+000	7	...........	0
	585	58.6	8.49722E-002	9.46788E-007	0.00000E+000	8.49854E-002	0.00000E+000	7	...........	0
	588	58.9	8.79852E-002	9.44454E-007	0.00000E+000	8.79855E-002	0.00000E+000	7	...........	0
	591	59.2	9.09582E-002	8.94440E-007	0.00000E+000	9.09857E-002	0.00000E+000	7	...........	0
	594	59.5	9.39812E-002	8.83437E-007	0.00000E+000	9.39858E-002	0.00000E+000	7	...........	0
	597	59.8	9.69241E-002	1.07782E-006	0.00000E+000	9.69859E-002	0.00000E+000	7	...........	0
	600	60.1	9.99972E-002	1.05182E-006	0.00000E+000	9.99860E-002	0.00000E+000	7	...........	0
	603	60.4	1.02980E-001	1.09283E-006	0.00000E+000	1.02986E-001	0.00000E+000	7	...........	0
	606	60.7	1.05953E-001	1.07782E-006	0.00000E+000	1.05986E-001	0.00000E+000	7	...........	0
	609	61	1.08986E-001	1.10316E-006	0.00000E+000	1.08986E-001	0.00000E+000	7	...........	0
	612	61.3	1.11949E-001	1.07682E-006	0.00000E+000	1.11987E-001	0.00000E+000	7	...........	0
	615	61.6	1.15002E-001	1.07115E-006	0.00000E+000	1.14987E-001	0.00000E+000	7	...........	0
	618	61.9	1.17955E-001	1.09249E-006	0.00000E+000	1.17987E-001	0.00000E+000	7	...........	0
	621	62.2	1.20938E-001	1.14418E-006	0.00000E+000	1.20987E-001	0.00000E+000	7	...........	0
	624	62.5	1.23931E-001	1.26654E-006	0.00000E+000	1.23987E-001	0.00000E+000	7	...........	0
	627	62.8	1.26954E-001	1.36090E-006	0.00000E+000	1.26987E-001	0.00000E+000	7	...........	0
	630	63.1	1.29937E-001	1.38891E-006	0.00000E+000	1.29987E-001	0.00000E+000	7	...........	0
	633	63.4	1.32940E-001	1.45960E-006	0.00000E+000	1.32987E-001	0.00000E+000	7	...........	0
	636	63.7	1.35953E-001	1.46093E-006	0.00000E+000	1.35988E-001	0.00000E+000	7	...........	0
	639	64	1.38966E-001	1.47627E-006	0.00000E+000	1.38988E-001	0.00000E+000	7	...........	0
	642	64.3	1.41989E-001	1.51094E-006	0.00000E+000	1.41988E-001	0.00000E+000	7	...........	0
	645	64.6	1.44952E-001	1.44559E-006	0.00000E+000	1.44988E-001	0.00000E+000	7	...........	0
	648	64.9	1.47975E-001	1.49194E-006	0.00000E+000	1.47988E-001	0.00000E+000	7	...........	0
	651	65.2	1.50958E-001	1.42459E-006	0.00000E+000	1.50988E-001	0.00000E+000	7	...........	0
	654	65.5	1.53971E-001	1.42925E-006	0.00000E+000	1.53988E-001	0.00000E+000	7	...........	0
	657	65.8	1.57014E-001	1.47627E-006	0.00000E+000	1.56988E-001	0.00000E+000	7	...........	0
	660	66.1	1.60007E-001	1.42459E-006	0.00000E+000	1.59988E-001	0.00000E+000	7	...........	0
	663	66.4	1.62960E-001	1.40891E-006	0.00000E+000	1.62989E-001	0.00000E+000	7	...........	0
	666	66.7	1.65963E-001	1.41292E-006	0.00000E+000	1.65989E-001	0.00000E+000	7	...........	0
	669	67	1.68936E-001	1.48260E-006	0.00000E+000	1.68989E-001	0.00000E+000	7	...........	0
	672	67.3	1.71949E-001	1.51094E-006	0.00000E+000	1.71989E-001	0.00000E+000	7	...........	0
	675	67.6	1.74962E-001	1.47960E-006	0.00000E+000	1.74989E-001	0.00000E+000	7	...........	0
	678	67.9	1.77975E-001	1.50861E-006	0.00000E+000	1.77989E-001	0.00000E+000	7	...........	0
	681	68.2	1.80948E-001	1.58963E-006	0.00000E+000	1.80989E-001	0.00000E+000	7	...........	0
	684	68.5	1.83911E-001	1.61664E-006	0.00000E+000	1.83989E-001	0.00000E+000	7	...........	0
	687	68.8	1.86954E-001	1.65098E-006	0.00000E+000	1.86990E-001	0.00000E+000	7	...........	0
	690	69.1	1.89957E-001	1.70200E-006	0.00000E+000	1.89990E-001	0.00000E+000	7	...........	0
	693	69.4	1.92920E-001	1.72667E-006	0.00000E+000	1.92990E-001	0.00000E+000	7	...........	0
	696	69.7	1.95983E-001	1.80069E-006	0.00000E+000	1.95990E-001	0.00000E+000	7	...........	0
	699	70	1.98956E-001	1.83837E-006	0.00000E+000	1.98990E-001	0.00000E+000	7	...........	0
	702	70.3	2.01919E-001	1.83837E-006	0.00000E+000	2.01990E-001	0.00000E+000	7	...........	0
	705	70.6	2.04932E-001	1.93906E-006	0.00000E+000	2.04990E-001	0.00000E+000	7	...........	0
	708	70.9	2.07945E-001	1.90038E-006	0.00000E+000	2.07990E-001	0.00000E+000	7	...........	0
	711	71.2	2.10908E-001	1.92772E-006	0.00000E+000	2.10991E-001	0.00000E+000	7	...........	0
	714	71.5	2.13931E-001	1.90005E-006	0.00000E+000	2.13991E-001	0.00000E+000	7	...........	0
	717	71.8	2.16944E-001	1.98507E-006	0.00000E+000	2.16991E-001	0.00000E+000	7	...........	0
	720	72.1	2.19957E-001	1.99474E-006	0.00000E+000	2.19991E-001	0.00000E+000	7	...........	0
	723	72.4	2.22940E-001	1.94773E-006	0.00000E+000	2.22991E-001	0.00000E+000	7	...........	0
	726	72.7	2.25943E-001	1.99241E-006	0.00000E+000	2.25991E-001	0.00000E+000	7	...........	0
	729	73	2.28945E-001	2.04142E-006	0.00000E+000	2.28991E-001	0.00000E+000	7	...........	0
	732	73.3	2.31979E-001	2.07343E-006	0.00000E+000	2.31991E-001	0.00000E+000	7	...........	0
	735	73.6	2.34961E-001	2.10611E-006	0.00000E+000	2.34992E-001	0.00000E+000	7	...........	0
	738	73.9	2.37954E-001	2.04075E-006	0.00000E+000	2.37992E-001	0.00000E+000	7	...........	0
	741	74.2	2.40967E-001	2.12511E-006	0.00000E+000	2.40992E-001	0.00000E+000	7	...........	0
	744	74.5	2.43930E-001	2.06843E-006	0.00000E+000	2.43992E-001	0.00000E+000	7	...........	0
	747	74.8	2.46933E-001	2.04009E-006	0.00000E+000	2.46992E-001	0.00000E+000	7	...........	0
	750	75.1	2.49956E-001	2.02075E-006	0.00000E+000	2.49992E-001	0.00000E+000	7	...........	0
	753	75.4	2.52949E-001	2.06443E-006	0.00000E+000	2.52992E-001	0.00000E+000	7	...........	0
	756	75.7	2.55862E-001	2.02608E-006	0.00000E+000	2.55992E-001	0.00000E+000	7	...........	0
	759	76	2.58865E-001	1.95940E-006	0.00000E+000	2.58993E-001	0.00000E+000	7	...........	0
	762	76.3	2.61898E-001	1.97074E-006	0.00000E+000	2.61993E-001	0.00000E+000	7	...........	0
	765	76.6	2.64841E-001	2.03742E-006	0.00000E+000	2.64993E-001	0.00000E+000	7	...........	0
	768	76.9	2.68155E-001	2.09644E-006	0.00000E+000	2.67993E-001	0.00000E+000	7	...........	0
	771	77.2	2.71058E-001	2.13511E-006	0.00000E+000	2.70993E-001	0.00000E+000	7	...........	0
	774	77.5	2.74061E-001	2.14345E-006	0.00000E+000	2.73993E-001	0.00000E+000	7	...........	0
	777	77.8	2.77064E-001	2.20580E-006	0.00000E+000	2.76993E-001	0.00000E+000	7	...........	0
	780	78.1	2.80067E-001	2.34250E-006	0.00000E+000	2.79993E-001	0.00000E+000	7	...........	0
	783	78.4	2.82970E-001	2.38452E-006	0.00000E+000	2.82993E-001	0.00000E+000	7	...........	0
	786	78.7	2.86173E-001	2.39152E-006	0.00000E+000	2.85994E-001	0.00000E+000	7	...........	0
	789	79	2.88976E-001	2.51555E-006	0.00000E+000	2.88994E-001	0.00000E+000	7	...........	0
	792	79.3	2.92079E-001	2.60658E-006	0.00000E+000	2.91994E-001	0.00000E+000	7	...........	0
	795	79.6	2.95082E-001	2.65759E-006	0.00000E+000	2.94994E-001	0.00000E+000	7	...........	0
	798	79.9	2.98085E-001	2.69527E-006	0.00000E+000	2.97994E-001	0.00000E+000	7	...........	0
	801	80.2	3.00988E-001	2.70760E-006	0.00000E+000	3.00994E-001	0.00000E+000	7	...........	0
	804	80.5	3.04091E-001	2.56290E-006	0.00000E+000	3.03994E-001	0.00000E+000	7	...........	0
	807	80.8	3.07094E-001	2.51922E-006	0.00000E+000	3.06994E-001	0.00000E+000	7	...........	0
	810	81.1	3.10197E-001	2.43786E-006	0.00000E+000	3.09995E-001	0.00000E+000	7	...........	0
	813	81.4	3.13100E-001	2.47687E-006	0.00000E+000	3.12995E-001	0.00000E+000	7	...........	0
	816	81.7	3.16103E-001	2.54623E-006	0.00000E+000	3.15995E-001	0.00000E+000	7	...........	0
	819	82	3.19106E-001	2.52355E-006	0.00000E+000	3.18995E-001	0.00000E+000	7	...........	0
	822	82.3	3.22109E-001	2.58857E-006	0.00000E+000	3.21995E-001	0.00000E+000	7	...........	0
	825	82.6	3.25012E-001	2.62658E-006	0.00000E+000	3.24995E-001	0.00000E+000	7	...........	0
	828	82.9	3.28015E-001	2.69127E-006	0.00000E+000	3.27995E-001	0.00000E+000	7	...........	0
	831	83.2	3.31118E-001	2.71194E-006	0.00000E+000	3.30995E-001	0.00000E+000	7	...........	0
	834	83.5	3.33920E-001	2.56990E-006	0.00000E+000	3.33996E-001	0.00000E+000	7	...........	0
	837	83.8	3.37024E-001	2.51789E-006	0.00000E+000	3.36996E-001	0.00000E+000	7	...........	0
	840	84.1	3.40127E-001	2.52222E-006	0.00000E+000	3.39996E-001	0.00000E+000	7	...........	0
	843	84.4	3.43030E-001	2.50488E-006	0.00000E+000	3.42996E-001	0.00000E+000	7	...........	0
	846	84.7	3.46133E-001	2.51322E-006	0.00000E+000	3.45996E-001	0.00000E+000	7	...........	0
	849	85	3.49036E-001	2.54323E-006	0.00000E+000	3.48996E-001	0.00000E+000	7	...........	0
	852	85.3	3.52139E-001	2.59124E-006	0.00000E+000	3.51996E-001	0.00000E+000	7	...........	0
	855	85.6	3.55042E-001	2.68627E-006	0.00000E+000	3.54996E-001	0.00000E+000	7	...........	0
	858	85.9	3.58044E-001	2.65592E-006	0.00000E+000	3.57997E-001	0.00000E+000	7	...........	0
	861	86.2	3.61047E-001	2.71694E-006	0.00000E+000	3.60997E-001	0.00000E+000	7	...........	0
	864	86.5	3.64050E-001	2.72761E-006	0.00000E+000	3.63997E-001	0.00000E+000	7	...........	0
	867	86.8	3.67053E-001	2.71494E-006	0.00000E+000	3.66997E-001	0.00000E+000	7	...........	0
	870	87.1	3.70157E-001	2.65426E-006	0.00000E+000	3.69997E-001	0.00000E+000	7	...........	0
	873	87.4	3.73160E-001	2.62025E-006	0.00000E+000	3.72997E-001	0.00000E+000	7	...........	0
	876	87.7	3.76062E-001	2.59657E-006	0.00000E+000	3.75997E-001	0.00000E+000	7	...........	0
	879	88	3.79065E-001	2.55156E-006	0.00000E+000	3.78997E-001	0.00000E+000	7	...........	0
	882	88.3	3.82068E-001	2.54889E-006	0.00000E+000	3.81998E-001	0.00000E+000	7	...........	0
	885	88.6	3.85071E-001	2.52555E-006	0.00000E+000	3.84998E-001	0.00000E+000	7	...........	0
	888	88.9	3.88074E-001	2.49588E-006	0.00000E+000	3.87998E-001	0.00000E+000	7	...........	0
	891	89.2	3.91077E-001	2.59191E-006	0.00000E+000	3.90998E-001	0.00000E+000	7	...........	0
	894	89.5	3.94180E-001	2.60291E-006	0.00000E+000	3.93998E-001	0.00000E+000	7	...........	0
	897	89.8	3.97083E-001	2.60058E-006	0.00000E+000	3.96998E-001	0.00000E+000	7	...........	0
	900	90.1	4.00086E-001	2.56156E-006	0.00000E+000	3.99998E-001	0.00000E+000	7	...........	0
	903	90.4	4.03089E-001	2.65592E-006	0.00000E+000	4.02998E-001	0.00000E+000	7	...........	0
	906	90.7	4.05992E-001	2.57957E-006	0.00000E+000	4.05999E-001	0.00000E+000	7	...........	0
	909	91	4.09095E-001	2.67326E-006	0.00000E+000	4.08999E-001	0.00000E+000	7	...........	0
	912	91.3	4.12098E-001	2.80196E-006	0.00000E+000	4.11999E-001	0.00000E+000	7	...........	0
	915	91.6	4.15101E-001	2.79196E-006	0.00000E+000	4.14999E-001	0.00000E+000	7	...........	0
	918	91.9	4.18104E-001	2.87265E-006	0.00000E+000	4.17999E-001	0.00000E+000	7	...........	0
	921	92.2	4.21007E-001	2.85131E-006	0.00000E+000	4.20999E-001	0.00000E+000	7	...........	0
	924	92.5	4.24110E-001	2.90866E-006	0.00000E+000	4.23999E-001	0.00000E+000	7	...........	0
	927	92.8	4.27113E-001	2.89499E-006	0.00000E+000	4.26999E-001	0.00000E+000	7	...........	0
	930	93.1	4.30016E-001	2.82297E-006	0.00000E+000	4.30000E-001	0.00000E+000	7	...........	0
	933	93.4	4.33019E-001	2.77296E-006	0.00000E+000	4.33000E-001	0.00000E+000	7	...........	0
	936	93.7	4.36122E-001	2.72728E-006	0.00000E+000	4.36000E-001	0.00000E+000	7	...........	0
	939	94	4.39125E-001	2.65792E-006	0.00000E+000	4.39000E-001	0.00000E+000	7	...........	0
	942	94.3	4.42128E-001	2.64659E-006	0.00000E+000	4.42000E-001	0.00000E+000	7	...........	0
	945	94.6	4.45131E-001	2.59191E-006	0.00000E+000	4.45000E-001	0.00000E+000	7	...........	0
	948	94.9	4.48134E-001	2.54556E-006	0.00000E+000	4.48000E-001	0.00000E+000	7	...........	0
	951	95.2	4.51137E-001	2.52189E-006	0.00000E+000	4.51000E-001	0.00000E+000	7	...........	0
	954	95.5	4.54140E-001	2.62125E-006	0.00000E+000	4.54001E-001	0.00000E+000	7	...........	0
	957	95.8	4.57143E-001	2.55090E-006	0.00000E+000	4.57001E-001	0.00000E+000	7	...........	0
	960	96.1	4.60046E-001	2.64692E-006	0.00000E+000	4.60001E-001	0.00000E+000	7	...........	0
	963	96.4	4.63149E-001	2.75728E-006	0.00000E+000	4.63001E-001	0.00000E+000	7	...........	0
	966	96.7	4.66152E-001	2.80563E-006	0.00000E+000	4.66001E-001	0.00000E+000	7	...........	0
	969	97	4.69055E-001	2.92533E-006	0.00000E+000	4.69001E-001	0.00000E+000	7	...........	0
	972	97.3	4.72058E-001	2.85731E-006	0.00000E+000	4.72001E-001	0.00000E+000	7	...........	0
	975	97.6	4.75161E-001	2.93333E-006	0.00000E+000	4.75001E-001	0.00000E+000	7	...........	0
	978	97.9	4.77964E-001	2.94600E-006	0.00000E+000	4.78001E-001	0.00000E+000	7	...........	0
	981	98.2	4.81167E-001	2.86465E-006	0.00000E+000	4.81002E-001	0.00000E+000	7	...........	0
	984	98.5	4.84070E-001	2.98701E-006	0.00000E+000	4.84002E-001	0.00000E+000	7	...........	0
	987	98.8	4.87073E-001	2.91399E-006	0.00000E+000	4.87002E-001	0.00000E+000	7	...........	0
	990	99.1	4.90076E-001	3.00669E-006	0.00000E+000	4.90002E-001	0.00000E+000	7	...........	0
	993	99.4	4.93179E-001	2.92933E-006	0.00000E+000	4.93002E-001	0.00000E+000	7	...........	0
	996	99.7	4.96082E-001	2.92100E-006	0.00000E+000	4.96002E-001	0.00000E+000	7	...........	0
	999	100	4.99085E-001	2.96968E-006	0.00000E+000	4.99002E-001	0.00000E+000	7	...........	0
	1002	100.3	5.02088E-001	3.01602E-006	0.00000E+000	5.02002E-001	0.00000E+000	7	...........	0
	1005	100.6	5.05091E-001	3.04270E-006	0.00000E+000	5.05003E-001	0.00000E+000	7	...........	0
	1008	100.9	5.08094E-001	3.11238E-006	0.00000E+000	5.08003E-001	0.00000E+000	7	...........	0
	1011	101.2	5.11097E-001	3.13839E-006	0.00000E+000	5.11003E-001	0.00000E+000	7	...........	0
	1014	101.5	5.14100E-001	3.20274E-006	0.00000E+000	5.14003E-001	0.00000E+000	7	...........	0
	1017	101.8	5.17003E-001	3.26442E-006	0.00000E+000	5.17003E-001	0.00000E+000	7	...........	0
	1020	102.1	5.20106E-001	3.40080E-006	0.00000E+000	5.20003E-001	0.00000E+000	7	...........	0
	1023	102.4	5.23109E-001	3.43914E-006	0.00000E+000	5.23003E-001	0.00000E+000	7	...........	0
	1026	102.7	5.26112E-001	3.45081E-006	0.00000E+000	5.26003E-001	0.00000E+000	7	...........	0
	1029	103	5.29115E-001	3.51783E-006	0.00000E+000	5.29004E-001	0.00000E+000	7	...........	0
	1032	103.3	5.32118E-001	3.53483E-006	0.00000E+000	5.32004E-001	0.00000E+000	7	...........	0
	1035	103.6	5.35121E-001	3.58518E-006	0.00000E+000	5.35004E-001	0.00000E+000	7	...........	0
	1038	103.9	5.38124E-001	3.56451E-006	0.00000E+000	5.38004E-001	0.00000E+000	7	...........	0
	1041	104.2	5.41127E-001	3.59885E-006	0.00000E+000	5.41004E-001	0.00000E+000	7	...........	0
	1044	104.5	5.44130E-001	3.59852E-006	0.00000E+000	5.44004E-001	0.00000E+000	7	...........	0
	1047	104.8	5.47033E-001	3.63953E-006	0.00000E+000	5.47004E-001	0.00000E+000	7	...........	0
	1050	105.1	5.50136E-001	3.64319E-006	0.00000E+000	5.50004E-001	0.00000E+000	7	...........	0
	1053	105.4	5.53139E-001	3.66187E-006	0.00000E+000	5.53005E-001	0.00000E+000	7	...........	0
	1056	105.7	5.56142E-001	3.69821E-006	0.00000E+000	5.56005E-001	0.00000E+000	7	...........	0
	1059	106	5.59145E-001	3.71221E-006	0.00000E+000	5.59005E-001	0.00000E+000	7	...........	0
	1062	106.3	5.62148E-001	3.73722E-006	0.00000E+000	5.62005E-001	0.00000E+000	7	...........	0
	1065	106.6	5.65151E-001	3.79524E-006	0.00000E+000	5.65005E-001	0.00000E+000	7	...........	0
	1068	106.9	5.68154E-001	3.84792E-006	0.00000E+000	5.68005E-001	0.00000E+000	7	...........	0
	1071	107.2	5.71157E-001	3.93527E-006	0.00000E+000	5.71005E-001	0.00000E+000	7	...........	0
	1074	107.5	5.74160E-001	3.91327E-006	0.00000E+000	5.74005E-001	0.00000E+000	7	...........	0
	1077	107.8	5.77062E-001	4.01163E-006	0.00000E+000	5.77006E-001	0.00000E+000	7	...........	0
	1080	108.1	5.80166E-001	4.06965E-006	0.00000E+000	5.80006E-001	0.00000E+000	7	...........	0
	1083	108.4	5.83169E-001	4.14167E-006	0.00000E+000	5.83006E-001	0.00000E+000	7	...........	0
	1086	108.7	5.86071E-001	4.19335E-006	0.00000E+000	5.86006E-001	0.00000E+000	7	...........	0
	1089	109	5.89074E-001	4.24269E-006	0.00000E+000	5.89006E-001	0.00000E+000	7	...........	0
	1092	109.3	5.92178E-001	4.34239E-006	0.00000E+000	5.92006E-001	0.00000E+000	7	...........	0
	1095	109.6	5.95181E-001	4.39340E-006	0.00000E+000	5.95006E-001	0.00000E+000	7	...........	0
	1098	109.9	5.98184E-001	4.52344E-006	0.00000E+000	5.98006E-001	0.00000E+000	7	...........	0
	1100	110.1	6.00085E-001	4.57378E-006	0.00000E+000	6.00006E-001	0.00000E+000	7	...........	0