File: LSV ZFO/ZFO_h400_chop_reator.DTA
EXPLAIN
TAG	LSV
TITLE	LABEL	Linear Sweep Voltammetry	Test &Identifier
DATE	LABEL	7/5/2024	Date
TIME	LABEL	17:34:50	Time
NOTES	NOTES	1	&Notes...

PSTAT	PSTAT	L3FNano	Potentiostat
VINIT	POTEN	-5.00000E-001	F	&Initial E (V)
VFINAL	POTEN	6.00000E-001	F	&Final E (V)
SCANRATE	QUANT	9.99998E+000	&Scan Rate (mV/s)
STEPSIZE	QUANT	1.00000E+000	St&ep Size (mV)
IMODE	SELECTOR	0	I/E Range &Mode
IRANGE	QUANT	1.00000E+001	&Max Current (mA)
AREA	QUANT	1.00000E+000	Electrode &Area (cm^2)
ELECTRODETYPE	SELECTOR	0	Electrode Type
STRIPPING	TOGGLE	F	Used for Stripping
POLARITY	TOGGLE	F	Signal Polarity
CONDIT	TWOPARAM	F	1.50000E+001	0.00000E+000	Conditionin&g	Time(s)	E(V)
DELAY	TWOPARAM	F	3.00000E+001	0.00000E+000	Init. De&lay	Time(s)	Stab.(mV/s)
EQDELAY	QUANT	5.00000E+000	Equil. &Time (s)
IRCOMP	SELECTOR	0	IRCom&p
PFCOR	QUANT	5.00000E+001	PF Corr. (ohm)
SAMPLINGMODE	SELECTOR	0	Sampling &Mode
EOC	QUANT	0	Open Circuit (V)
PSTATMODEL	IQUANT	48	Pstat Model
PSTATSECTION	LABEL	IFC1000-07082	Pstat Section
PSTATSERIALNO	LABEL	07082	Pstat Serial Number
CTRLMODE	IQUANT	1	Control Mode
IESTAB	IQUANT	2	I/E Stability
CASPEED	IQUANT	2	Control Amp Speed
CONVENTION	IQUANT	1	Current Convention
ICHRANGE	IQUANT	2	Ich Range
ICHRANGEMODE	TOGGLE	F	Ich Auto Range
ICHOFFSETENABLE	TOGGLE	F	Ich Offset Enable
ICHOFFSET	QUANT	0	Ich Offset (V)
ICHFILTER	IQUANT	3	Ich Filter
VCHRANGE	IQUANT	2	Vch Range
VCHRANGEMODE	TOGGLE	T	Vch Auto Range
VCHOFFSETENABLE	TOGGLE	F	Vch Offset Enable
VCHOFFSET	QUANT	0	Vch Offset (V)
VCHFILTER	IQUANT	3	Vch Filter
IERANGELOWERLIMIT	IQUANT	4	I/E Range Lower Limit
IERANGEMODE	TOGGLE	T	I/E AutoRange
IERANGE	IQUANT	11	I/E Range
ACHSELECT	IQUANT	4	Ach Select
CABLEID	IQUANT	14	Cable ID
DCCALDATE	LABEL	7/3/2024	DC Calibration Date
ACCALDATE	LABEL	7/3/2024	AC Calibration Date
FRAMEWORKVERSION	QUANT	6.24	Framework Version
INSTRUMENTVERSION	LABEL	3.28	Instrument Version
CURVE	TABLE	1101
	Pt	T	Vf	Im	Vu	Sig	Ach	IERange	Over	Cycle
	#	s	V vs. Ref.	A	V	V	V	#	bits	#
	0	0.1	-5.00010E-001	-4.71743E-006	0.00000E+000	-4.99988E-001	0.00000E+000	11	...........	0
	3	0.4	-4.97007E-001	-8.54532E-006	0.00000E+000	-4.96988E-001	0.00000E+000	8	...........	0
	6	0.7	-4.94004E-001	-8.45079E-006	0.00000E+000	-4.93988E-001	0.00000E+000	7	...........	0
	9	1	-4.91101E-001	-8.01167E-006	0.00000E+000	-4.90988E-001	0.00000E+000	7	...........	0
	12	1.3	-4.88098E-001	-7.71559E-006	0.00000E+000	-4.87988E-001	0.00000E+000	7	...........	0
	15	1.6	-4.85095E-001	-7.17878E-006	0.00000E+000	-4.84988E-001	0.00000E+000	7	...........	0
	18	1.9	-4.82092E-001	-6.74833E-006	0.00000E+000	-4.81988E-001	0.00000E+000	7	...........	0
	21	2.2	-4.79089E-001	-6.35055E-006	0.00000E+000	-4.78988E-001	0.00000E+000	7	...........	0
	24	2.5	-4.75986E-001	-5.92877E-006	0.00000E+000	-4.75987E-001	0.00000E+000	7	...........	0
	27	2.8	-4.73083E-001	-5.62902E-006	0.00000E+000	-4.72987E-001	0.00000E+000	7	...........	0
	30	3.1	-4.70080E-001	-5.29859E-006	0.00000E+000	-4.69987E-001	0.00000E+000	7	...........	0
	33	3.4	-4.66977E-001	-5.13322E-006	0.00000E+000	-4.66987E-001	0.00000E+000	7	...........	0
	36	3.7	-4.64074E-001	-4.73111E-006	0.00000E+000	-4.63987E-001	0.00000E+000	7	...........	0
	39	4	-4.61071E-001	-4.48571E-006	0.00000E+000	-4.60987E-001	0.00000E+000	7	...........	0
	42	4.3	-4.58068E-001	-4.17295E-006	0.00000E+000	-4.57987E-001	0.00000E+000	7	...........	0
	45	4.6	-4.54965E-001	-3.85820E-006	0.00000E+000	-4.54987E-001	0.00000E+000	7	...........	0
	48	4.9	-4.52062E-001	-3.67081E-006	0.00000E+000	-4.51987E-001	0.00000E+000	7	...........	0
	51	5.2	-4.49159E-001	-3.54811E-006	0.00000E+000	-4.48986E-001	0.00000E+000	7	...........	0
	54	5.5	-4.45956E-001	-3.21736E-006	0.00000E+000	-4.45986E-001	0.00000E+000	7	...........	0
	57	5.8	-4.43053E-001	-2.60752E-006	0.00000E+000	-4.42986E-001	0.00000E+000	7	...........	0
	60	6.1	-4.40050E-001	-2.62886E-006	0.00000E+000	-4.39986E-001	0.00000E+000	7	...........	0
	63	6.4	-4.37047E-001	-2.47915E-006	0.00000E+000	-4.36986E-001	0.00000E+000	7	...........	0
	66	6.7	-4.33944E-001	-2.37979E-006	0.00000E+000	-4.33986E-001	0.00000E+000	7	...........	0
	69	7	-4.31041E-001	-2.25176E-006	0.00000E+000	-4.30986E-001	0.00000E+000	7	...........	0
	72	7.3	-4.28038E-001	-2.06304E-006	0.00000E+000	-4.27986E-001	0.00000E+000	7	...........	0
	75	7.6	-4.25035E-001	-1.90566E-006	0.00000E+000	-4.24985E-001	0.00000E+000	7	...........	0
	78	7.9	-4.21932E-001	-1.80730E-006	0.00000E+000	-4.21985E-001	0.00000E+000	7	...........	0
	81	8.2	-4.19029E-001	-1.63059E-006	0.00000E+000	-4.18985E-001	0.00000E+000	7	...........	0
	84	8.5	-4.16026E-001	-1.48288E-006	0.00000E+000	-4.15985E-001	0.00000E+000	7	...........	0
	87	8.8	-4.13023E-001	-1.39886E-006	0.00000E+000	-4.12985E-001	0.00000E+000	7	...........	0
	90	9.1	-4.10120E-001	-1.11511E-006	0.00000E+000	-4.09985E-001	0.00000E+000	7	...........	0
	93	9.4	-4.06917E-001	-1.08444E-006	0.00000E+000	-4.06985E-001	0.00000E+000	7	...........	0
	96	9.7	-4.04114E-001	-8.59709E-007	0.00000E+000	-4.03985E-001	0.00000E+000	7	...........	0
	99	10	-4.01011E-001	-8.45705E-007	0.00000E+000	-4.00984E-001	0.00000E+000	7	...........	0
	102	10.3	-3.98108E-001	-1.60158E-006	0.00000E+000	-3.97984E-001	0.00000E+000	7	...........	0
	105	10.6	-3.95105E-001	-8.82715E-007	0.00000E+000	-3.94984E-001	0.00000E+000	7	...........	0
	108	10.9	-3.92002E-001	-7.36008E-007	0.00000E+000	-3.91984E-001	0.00000E+000	7	...........	0
	111	11.2	-3.88999E-001	-5.06612E-007	0.00000E+000	-3.88984E-001	0.00000E+000	7	...........	0
	114	11.5	-3.85996E-001	-3.60905E-007	0.00000E+000	-3.85984E-001	0.00000E+000	7	...........	0
	117	11.8	-3.82993E-001	-3.32897E-007	0.00000E+000	-3.82984E-001	0.00000E+000	7	...........	0
	120	12.1	-3.79990E-001	-1.15838E-007	0.00000E+000	-3.79984E-001	0.00000E+000	7	...........	0
	123	12.4	-3.76987E-001	-7.44931E-008	0.00000E+000	-3.76983E-001	0.00000E+000	7	...........	0
	126	12.7	-3.74084E-001	1.11971E-008	0.00000E+000	-3.73983E-001	0.00000E+000	7	...........	0
	129	13	-3.71081E-001	1.38232E-007	0.00000E+000	-3.70983E-001	0.00000E+000	7	...........	0
	132	13.3	-3.67978E-001	2.46262E-007	0.00000E+000	-3.67983E-001	0.00000E+000	7	...........	0
	135	13.6	-3.65075E-001	2.95275E-007	0.00000E+000	-3.64983E-001	0.00000E+000	7	...........	0
	138	13.9	-3.61972E-001	2.42927E-007	0.00000E+000	-3.61983E-001	0.00000E+000	7	...........	0
	141	14.2	-3.59069E-001	3.26284E-007	0.00000E+000	-3.58983E-001	0.00000E+000	7	...........	0
	144	14.5	-3.55966E-001	3.21949E-007	0.00000E+000	-3.55983E-001	0.00000E+000	7	...........	0
	147	14.8	-3.53063E-001	4.95330E-007	0.00000E+000	-3.52982E-001	0.00000E+000	7	...........	0
	150	15.1	-3.50060E-001	5.51679E-007	0.00000E+000	-3.49982E-001	0.00000E+000	7	...........	0
	153	15.4	-3.46957E-001	6.10028E-007	0.00000E+000	-3.46982E-001	0.00000E+000	7	...........	0
	156	15.7	-3.44054E-001	2.64825E-006	0.00000E+000	-3.43982E-001	0.00000E+000	7	...........	0
	159	16	-3.41051E-001	1.29855E-006	0.00000E+000	-3.40982E-001	0.00000E+000	7	...........	0
	162	16.3	-3.38148E-001	1.17318E-006	0.00000E+000	-3.37982E-001	0.00000E+000	7	...........	0
	165	16.6	-3.35145E-001	1.14584E-006	0.00000E+000	-3.34982E-001	0.00000E+000	7	...........	0
	168	16.9	-3.32042E-001	1.06115E-006	0.00000E+000	-3.31982E-001	0.00000E+000	7	...........	0
	171	17.2	-3.29039E-001	1.18785E-006	0.00000E+000	-3.28982E-001	0.00000E+000	7	...........	0
	174	17.5	-3.26036E-001	1.18819E-006	0.00000E+000	-3.25981E-001	0.00000E+000	7	...........	0
	177	17.8	-3.23033E-001	1.33089E-006	0.00000E+000	-3.22981E-001	0.00000E+000	7	...........	0
	180	18.1	-3.20030E-001	1.31422E-006	0.00000E+000	-3.19981E-001	0.00000E+000	7	...........	0
	183	18.4	-3.17027E-001	1.29122E-006	0.00000E+000	-3.16981E-001	0.00000E+000	7	...........	0
	186	18.7	-3.14024E-001	1.34090E-006	0.00000E+000	-3.13981E-001	0.00000E+000	7	...........	0
	189	19	-3.10921E-001	1.41658E-006	0.00000E+000	-3.10981E-001	0.00000E+000	7	...........	0
	192	19.3	-3.07918E-001	1.26754E-006	0.00000E+000	-3.07981E-001	0.00000E+000	7	...........	0
	195	19.6	-3.05015E-001	1.35557E-006	0.00000E+000	-3.04981E-001	0.00000E+000	7	...........	0
	198	19.9	-3.02013E-001	1.40025E-006	0.00000E+000	-3.01980E-001	0.00000E+000	7	...........	0
	201	20.2	-2.99010E-001	-1.03309E-006	0.00000E+000	-2.98980E-001	0.00000E+000	7	...........	0
	204	20.5	-2.96007E-001	6.73379E-007	0.00000E+000	-2.95980E-001	0.00000E+000	7	...........	0
	207	20.8	-2.93104E-001	7.75407E-007	0.00000E+000	-2.92980E-001	0.00000E+000	7	...........	0
	210	21.1	-2.90001E-001	9.41786E-007	0.00000E+000	-2.89980E-001	0.00000E+000	7	...........	0
	213	21.4	-2.86998E-001	9.25115E-007	0.00000E+000	-2.86980E-001	0.00000E+000	7	...........	0
	216	21.7	-2.83995E-001	9.90466E-007	0.00000E+000	-2.83980E-001	0.00000E+000	7	...........	0
	219	22	-2.81092E-001	1.05949E-006	0.00000E+000	-2.80980E-001	0.00000E+000	7	...........	0
	222	22.3	-2.77989E-001	1.08883E-006	0.00000E+000	-2.77979E-001	0.00000E+000	7	...........	0
	225	22.6	-2.74986E-001	1.10483E-006	0.00000E+000	-2.74979E-001	0.00000E+000	7	...........	0
	228	22.9	-2.71983E-001	1.13584E-006	0.00000E+000	-2.71979E-001	0.00000E+000	7	...........	0
	231	23.2	-2.68980E-001	1.11050E-006	0.00000E+000	-2.68979E-001	0.00000E+000	7	...........	0
	234	23.5	-2.65977E-001	1.16985E-006	0.00000E+000	-2.65979E-001	0.00000E+000	7	...........	0
	237	23.8	-2.62974E-001	1.20886E-006	0.00000E+000	-2.62979E-001	0.00000E+000	7	...........	0
	240	24.1	-2.60071E-001	1.25020E-006	0.00000E+000	-2.59979E-001	0.00000E+000	7	...........	0
	243	24.4	-2.57068E-001	1.19719E-006	0.00000E+000	-2.56979E-001	0.00000E+000	7	...........	0
	246	24.7	-2.53965E-001	1.34156E-006	0.00000E+000	-2.53978E-001	0.00000E+000	7	...........	0
	249	25	-2.50962E-001	1.27921E-006	0.00000E+000	-2.50978E-001	0.00000E+000	7	...........	0
	252	25.3	-2.47959E-001	1.21953E-006	0.00000E+000	-2.47978E-001	0.00000E+000	7	...........	0
	255	25.6	-2.45056E-001	3.73956E-006	0.00000E+000	-2.44978E-001	0.00000E+000	7	...........	0
	258	25.9	-2.41963E-001	2.96868E-006	0.00000E+000	-2.41978E-001	0.00000E+000	7	...........	0
	261	26.2	-2.38940E-001	2.80363E-006	0.00000E+000	-2.38978E-001	0.00000E+000	7	...........	0
	264	26.5	-2.35967E-001	2.53856E-006	0.00000E+000	-2.35978E-001	0.00000E+000	7	...........	0
	267	26.8	-2.32944E-001	2.54189E-006	0.00000E+000	-2.32978E-001	0.00000E+000	7	...........	0
	270	27.1	-2.29961E-001	2.60058E-006	0.00000E+000	-2.29977E-001	0.00000E+000	7	...........	0
	273	27.4	-2.26968E-001	2.57790E-006	0.00000E+000	-2.26977E-001	0.00000E+000	7	...........	0
	276	27.7	-2.23995E-001	2.59324E-006	0.00000E+000	-2.23977E-001	0.00000E+000	7	...........	0
	279	28	-2.20952E-001	2.19013E-006	0.00000E+000	-2.20977E-001	0.00000E+000	7	...........	0
	282	28.3	-2.17979E-001	2.02675E-006	0.00000E+000	-2.17977E-001	0.00000E+000	7	...........	0
	285	28.6	-2.14986E-001	1.85170E-006	0.00000E+000	-2.14977E-001	0.00000E+000	7	...........	0
	288	28.9	-2.11963E-001	1.86171E-006	0.00000E+000	-2.11977E-001	0.00000E+000	7	...........	0
	291	29.2	-2.08950E-001	1.89071E-006	0.00000E+000	-2.08977E-001	0.00000E+000	7	...........	0
	294	29.5	-2.05937E-001	2.08743E-006	0.00000E+000	-2.05976E-001	0.00000E+000	7	...........	0
	297	29.8	-2.02944E-001	2.15412E-006	0.00000E+000	-2.02976E-001	0.00000E+000	7	...........	0
	300	30.1	-1.99961E-001	2.50221E-006	0.00000E+000	-1.99976E-001	0.00000E+000	7	...........	0
	303	30.4	-1.96968E-001	5.03999E-007	0.00000E+000	-1.96976E-001	0.00000E+000	7	...........	0
	306	30.7	-1.93945E-001	9.57790E-007	0.00000E+000	-1.93976E-001	0.00000E+000	7	...........	0
	309	31	-1.90932E-001	1.17685E-006	0.00000E+000	-1.90976E-001	0.00000E+000	7	...........	0
	312	31.3	-1.87959E-001	1.23753E-006	0.00000E+000	-1.87976E-001	0.00000E+000	7	...........	0
	315	31.6	-1.84946E-001	1.12884E-006	0.00000E+000	-1.84976E-001	0.00000E+000	7	...........	0
	318	31.9	-1.81954E-001	1.23353E-006	0.00000E+000	-1.81975E-001	0.00000E+000	7	...........	0
	321	32.2	-1.78961E-001	1.26988E-006	0.00000E+000	-1.78975E-001	0.00000E+000	7	...........	0
	324	32.5	-1.75968E-001	1.19919E-006	0.00000E+000	-1.75975E-001	0.00000E+000	7	...........	0
	327	32.8	-1.72965E-001	1.24220E-006	0.00000E+000	-1.72975E-001	0.00000E+000	7	...........	0
	330	33.1	-1.69962E-001	1.20953E-006	0.00000E+000	-1.69975E-001	0.00000E+000	7	...........	0
	333	33.4	-1.66989E-001	1.34190E-006	0.00000E+000	-1.67025E-001	0.00000E+000	7	...........	0
	336	33.7	-1.63976E-001	1.26087E-006	0.00000E+000	-1.64025E-001	0.00000E+000	7	...........	0
	339	34	-1.61043E-001	1.21153E-006	0.00000E+000	-1.61025E-001	0.00000E+000	7	...........	0
	342	34.3	-1.57990E-001	1.37524E-006	0.00000E+000	-1.58025E-001	0.00000E+000	7	...........	0
	345	34.6	-1.55027E-001	1.22286E-006	0.00000E+000	-1.55024E-001	0.00000E+000	7	...........	0
	348	34.9	-1.52034E-001	1.30088E-006	0.00000E+000	-1.52024E-001	0.00000E+000	7	...........	0
	351	35.2	-1.49051E-001	1.39558E-006	0.00000E+000	-1.49024E-001	0.00000E+000	7	...........	0
	354	35.5	-1.46058E-001	5.37167E-006	0.00000E+000	-1.46024E-001	0.00000E+000	7	...........	0
	357	35.8	-1.43035E-001	3.90127E-006	0.00000E+000	-1.43024E-001	0.00000E+000	7	...........	0
	360	36.1	-1.40042E-001	3.41247E-006	0.00000E+000	-1.40024E-001	0.00000E+000	7	...........	0
	363	36.4	-1.37059E-001	2.61725E-006	0.00000E+000	-1.37024E-001	0.00000E+000	7	...........	0
	366	36.7	-1.33986E-001	2.45487E-006	0.00000E+000	-1.34024E-001	0.00000E+000	7	...........	0
	369	37	-1.30993E-001	2.47687E-006	0.00000E+000	-1.31023E-001	0.00000E+000	7	...........	0
	372	37.3	-1.27990E-001	2.30983E-006	0.00000E+000	-1.28023E-001	0.00000E+000	7	...........	0
	375	37.6	-1.24977E-001	2.30449E-006	0.00000E+000	-1.25023E-001	0.00000E+000	7	...........	0
	378	37.9	-1.21974E-001	2.39252E-006	0.00000E+000	-1.22023E-001	0.00000E+000	7	...........	0
	381	38.2	-1.18981E-001	2.55756E-006	0.00000E+000	-1.19023E-001	0.00000E+000	7	...........	0
	384	38.5	-1.15998E-001	2.36051E-006	0.00000E+000	-1.16023E-001	0.00000E+000	7	...........	0
	387	38.8	-1.13005E-001	2.37785E-006	0.00000E+000	-1.13023E-001	0.00000E+000	7	...........	0
	390	39.1	-1.10002E-001	2.44887E-006	0.00000E+000	-1.10023E-001	0.00000E+000	7	...........	0
	393	39.4	-1.06999E-001	2.43353E-006	0.00000E+000	-1.07022E-001	0.00000E+000	7	...........	0
	396	39.7	-1.04016E-001	2.58157E-006	0.00000E+000	-1.04022E-001	0.00000E+000	7	...........	0
	399	40	-1.00993E-001	2.68060E-006	0.00000E+000	-1.01022E-001	0.00000E+000	7	...........	0
	402	40.3	-9.79999E-002	2.78271E-007	0.00000E+000	-9.80221E-002	0.00000E+000	7	...........	0
	405	40.6	-9.49969E-002	7.57402E-007	0.00000E+000	-9.50219E-002	0.00000E+000	7	...........	0
	408	40.9	-9.19839E-002	9.34451E-007	0.00000E+000	-9.20218E-002	0.00000E+000	7	...........	0
	411	41.2	-8.90410E-002	1.19686E-006	0.00000E+000	-8.90217E-002	0.00000E+000	7	...........	0
	414	41.5	-8.60480E-002	1.22353E-006	0.00000E+000	-8.60216E-002	0.00000E+000	7	...........	0
	417	41.8	-8.30550E-002	1.35490E-006	0.00000E+000	-8.30214E-002	0.00000E+000	7	...........	0
	420	42.1	-8.00821E-002	1.32122E-006	0.00000E+000	-8.00213E-002	0.00000E+000	7	...........	0
	423	42.4	-7.70491E-002	1.47727E-006	0.00000E+000	-7.70212E-002	0.00000E+000	7	...........	0
	426	42.7	-7.40361E-002	1.31289E-006	0.00000E+000	-7.40211E-002	0.00000E+000	7	...........	0
	429	43	-7.10231E-002	1.41958E-006	0.00000E+000	-7.10210E-002	0.00000E+000	7	...........	0
	432	43.3	-6.80701E-002	1.39391E-006	0.00000E+000	-6.80208E-002	0.00000E+000	7	...........	0
	435	43.6	-6.50872E-002	1.48894E-006	0.00000E+000	-6.50207E-002	0.00000E+000	7	...........	0
	438	43.9	-6.20441E-002	1.52895E-006	0.00000E+000	-6.20206E-002	0.00000E+000	7	...........	0
	441	44.2	-5.90512E-002	1.47160E-006	0.00000E+000	-5.90205E-002	0.00000E+000	7	...........	0
	444	44.5	-5.60482E-002	1.50561E-006	0.00000E+000	-5.60203E-002	0.00000E+000	7	...........	0
	447	44.8	-5.30352E-002	1.30955E-006	0.00000E+000	-5.30202E-002	0.00000E+000	7	...........	0
	450	45.1	-5.00622E-002	1.52428E-006	0.00000E+000	-5.00201E-002	0.00000E+000	7	...........	0
	453	45.4	-4.70492E-002	1.51428E-006	0.00000E+000	-4.70200E-002	0.00000E+000	7	...........	0
	456	45.7	-4.40662E-002	7.17617E-006	0.00000E+000	-4.40199E-002	0.00000E+000	7	...........	0
	459	46	-4.10432E-002	5.67509E-006	0.00000E+000	-4.10197E-002	0.00000E+000	7	...........	0
	462	46.3	-3.80603E-002	5.25264E-006	0.00000E+000	-3.80196E-002	0.00000E+000	7	...........	0
	465	46.6	-3.50373E-002	4.97723E-006	0.00000E+000	-3.50195E-002	0.00000E+000	7	...........	0
	468	46.9	-3.20843E-002	4.96089E-006	0.00000E+000	-3.20194E-002	0.00000E+000	7	...........	0
	471	47.2	-2.90513E-002	5.09326E-006	0.00000E+000	-2.90192E-002	0.00000E+000	7	...........	0
	474	47.5	-2.60383E-002	4.64114E-006	0.00000E+000	-2.60191E-002	0.00000E+000	7	...........	0
	477	47.8	-2.29590E-002	4.72082E-006	0.00000E+000	-2.30190E-002	0.00000E+000	7	...........	0
	480	48.1	-2.00471E-002	4.96689E-006	0.00000E+000	-2.00189E-002	0.00000E+000	7	...........	0
	483	48.4	-1.70441E-002	5.19962E-006	0.00000E+000	-1.70187E-002	0.00000E+000	7	...........	0
	486	48.7	-1.40802E-002	5.11793E-006	0.00000E+000	-1.40186E-002	0.00000E+000	7	...........	0
	489	49	-1.10151E-002	5.25297E-006	0.00000E+000	-1.10185E-002	0.00000E+000	7	...........	0
	492	49.3	-8.03615E-003	5.11593E-006	0.00000E+000	-8.01838E-003	0.00000E+000	7	...........	0
	495	49.6	-5.04317E-003	5.36000E-006	0.00000E+000	-5.01826E-003	0.00000E+000	7	...........	0
	498	49.9	-2.04018E-003	4.92821E-006	0.00000E+000	-2.01814E-003	0.00000E+000	7	...........	0
	501	50.2	9.68817E-004	5.20362E-006	0.00000E+000	9.81987E-004	0.00000E+000	7	...........	0
	504	50.5	3.96780E-003	9.82210E-008	0.00000E+000	3.98211E-003	0.00000E+000	7	...........	0
	507	50.8	6.97379E-003	8.30089E-007	0.00000E+000	6.98223E-003	0.00000E+000	7	...........	0
	510	51.1	9.97578E-003	1.11517E-006	0.00000E+000	9.98235E-003	0.00000E+000	7	...........	0
	513	51.4	1.28857E-002	1.09783E-006	0.00000E+000	1.29825E-002	0.00000E+000	7	...........	0
	516	51.7	1.59177E-002	1.29188E-006	0.00000E+000	1.59826E-002	0.00000E+000	7	...........	0
	519	52	1.89307E-002	1.36023E-006	0.00000E+000	1.89827E-002	0.00000E+000	7	...........	0
	522	52.3	2.19227E-002	1.30155E-006	0.00000E+000	2.19828E-002	0.00000E+000	7	...........	0
	525	52.6	2.49277E-002	1.33089E-006	0.00000E+000	2.49830E-002	0.00000E+000	7	...........	0
	528	52.9	2.79454E-002	1.33223E-006	0.00000E+000	2.79831E-002	0.00000E+000	7	...........	0
	531	53.2	3.09484E-002	1.33223E-006	0.00000E+000	3.09832E-002	0.00000E+000	7	...........	0
	534	53.5	3.39514E-002	1.39925E-006	0.00000E+000	3.39833E-002	0.00000E+000	7	...........	0
	537	53.8	3.69344E-002	1.34456E-006	0.00000E+000	3.69835E-002	0.00000E+000	7	...........	0
	540	54.1	3.99674E-002	1.37691E-006	0.00000E+000	3.99836E-002	0.00000E+000	7	...........	0
	543	54.4	4.29404E-002	1.47827E-006	0.00000E+000	4.29837E-002	0.00000E+000	7	...........	0
	546	54.7	4.59634E-002	1.43592E-006	0.00000E+000	4.59838E-002	0.00000E+000	7	...........	0
	549	55	4.89163E-002	1.46226E-006	0.00000E+000	4.89840E-002	0.00000E+000	7	...........	0
	552	55.3	5.19093E-002	1.44659E-006	0.00000E+000	5.19841E-002	0.00000E+000	7	...........	0
	555	55.6	5.49223E-002	1.08360E-005	0.00000E+000	5.49842E-002	0.00000E+000	8	...........	0
	558	55.9	5.79553E-002	8.54454E-006	0.00000E+000	5.79843E-002	0.00000E+000	7	...........	0
	561	56.2	6.09483E-002	7.89803E-006	0.00000E+000	6.09844E-002	0.00000E+000	7	...........	0
	564	56.5	6.38912E-002	7.60728E-006	0.00000E+000	6.39846E-002	0.00000E+000	7	...........	0
	567	56.8	6.69442E-002	6.37861E-006	0.00000E+000	6.69847E-002	0.00000E+000	7	...........	0
	570	57.1	6.99572E-002	5.91982E-006	0.00000E+000	6.99848E-002	0.00000E+000	7	...........	0
	573	57.4	7.28902E-002	6.29526E-006	0.00000E+000	7.29849E-002	0.00000E+000	7	...........	0
	576	57.7	7.59432E-002	5.99651E-006	0.00000E+000	7.59851E-002	0.00000E+000	7	...........	0
	579	58	7.89262E-002	4.89554E-006	0.00000E+000	7.89852E-002	0.00000E+000	7	...........	0
	582	58.3	8.19592E-002	6.33493E-006	0.00000E+000	8.19853E-002	0.00000E+000	7	...........	0
	585	58.6	8.49322E-002	5.80579E-006	0.00000E+000	8.49854E-002	0.00000E+000	7	...........	0
	588	58.9	8.79552E-002	5.80646E-006	0.00000E+000	8.79855E-002	0.00000E+000	7	...........	0
	591	59.2	9.09381E-002	5.38767E-006	0.00000E+000	9.09857E-002	0.00000E+000	7	...........	0
	594	59.5	9.39711E-002	5.65641E-006	0.00000E+000	9.39858E-002	0.00000E+000	7	...........	0
	597	59.8	9.69141E-002	4.03230E-006	0.00000E+000	9.69859E-002	0.00000E+000	7	...........	0
	600	60.1	9.99271E-002	4.03797E-006	0.00000E+000	9.99860E-002	0.00000E+000	7	...........	0
	603	60.4	1.02950E-001	-2.07154E-006	0.00000E+000	1.02986E-001	0.00000E+000	8	...........	0
	606	60.7	1.05943E-001	2.39260E-007	0.00000E+000	1.05986E-001	0.00000E+000	7	...........	0
	609	61	1.08956E-001	7.90078E-007	0.00000E+000	1.08986E-001	0.00000E+000	7	...........	0
	612	61.3	1.11919E-001	9.10444E-007	0.00000E+000	1.11987E-001	0.00000E+000	7	...........	0
	615	61.6	1.14922E-001	1.08949E-006	0.00000E+000	1.14987E-001	0.00000E+000	7	...........	0
	618	61.9	1.17895E-001	1.23520E-006	0.00000E+000	1.17987E-001	0.00000E+000	7	...........	0
	621	62.2	1.20928E-001	1.20019E-006	0.00000E+000	1.20987E-001	0.00000E+000	7	...........	0
	624	62.5	1.23921E-001	1.26054E-006	0.00000E+000	1.23987E-001	0.00000E+000	7	...........	0
	627	62.8	1.26904E-001	1.22420E-006	0.00000E+000	1.26987E-001	0.00000E+000	7	...........	0
	630	63.1	1.29937E-001	1.21986E-006	0.00000E+000	1.29987E-001	0.00000E+000	7	...........	0
	633	63.4	1.32890E-001	1.22686E-006	0.00000E+000	1.32987E-001	0.00000E+000	7	...........	0
	636	63.7	1.35913E-001	1.17785E-006	0.00000E+000	1.35988E-001	0.00000E+000	7	...........	0
	639	64	1.38936E-001	1.18419E-006	0.00000E+000	1.38988E-001	0.00000E+000	7	...........	0
	642	64.3	1.41929E-001	1.13617E-006	0.00000E+000	1.41988E-001	0.00000E+000	7	...........	0
	645	64.6	1.44932E-001	1.27888E-006	0.00000E+000	1.44988E-001	0.00000E+000	7	...........	0
	648	64.9	1.47915E-001	1.14784E-006	0.00000E+000	1.47988E-001	0.00000E+000	7	...........	0
	651	65.2	1.50948E-001	1.18352E-006	0.00000E+000	1.50988E-001	0.00000E+000	7	...........	0
	654	65.5	1.53791E-001	1.09265E-005	0.00000E+000	1.53988E-001	0.00000E+000	7	....ih..i..	0
	657	65.8	1.56964E-001	1.12027E-005	0.00000E+000	1.56988E-001	0.00000E+000	8	...........	0
	660	66.1	1.59927E-001	9.94930E-006	0.00000E+000	1.59988E-001	0.00000E+000	8	...........	0
	663	66.4	1.62920E-001	7.87582E-006	0.00000E+000	1.62989E-001	0.00000E+000	8	...........	0
	666	66.7	1.65883E-001	5.92315E-006	0.00000E+000	1.65989E-001	0.00000E+000	7	...........	0
	669	67	1.68936E-001	5.16928E-006	0.00000E+000	1.68989E-001	0.00000E+000	7	...........	0
	672	67.3	1.71899E-001	5.55305E-006	0.00000E+000	1.71989E-001	0.00000E+000	7	...........	0
	675	67.6	1.74922E-001	5.45669E-006	0.00000E+000	1.74989E-001	0.00000E+000	7	...........	0
	678	67.9	1.77915E-001	6.78439E-006	0.00000E+000	1.77989E-001	0.00000E+000	7	...........	0
	681	68.2	1.80898E-001	5.12193E-006	0.00000E+000	1.80989E-001	0.00000E+000	7	...........	0
	684	68.5	1.83871E-001	4.44942E-006	0.00000E+000	1.83989E-001	0.00000E+000	7	...........	0
	687	68.8	1.86894E-001	4.26103E-006	0.00000E+000	1.86990E-001	0.00000E+000	7	...........	0
	690	69.1	1.89887E-001	4.17501E-006	0.00000E+000	1.89990E-001	0.00000E+000	7	...........	0
	693	69.4	1.92870E-001	4.31705E-006	0.00000E+000	1.92990E-001	0.00000E+000	7	...........	0
	696	69.7	1.95963E-001	3.81191E-006	0.00000E+000	1.95990E-001	0.00000E+000	7	...........	0
	699	70	1.98926E-001	4.57045E-006	0.00000E+000	1.98990E-001	0.00000E+000	7	...........	0
	702	70.3	2.01899E-001	4.18934E-006	0.00000E+000	2.01990E-001	0.00000E+000	7	...........	0
	705	70.6	2.04902E-001	-1.44920E-006	0.00000E+000	2.04990E-001	0.00000E+000	7	...........	0
	708	70.9	2.07965E-001	-7.18257E-008	0.00000E+000	2.07990E-001	0.00000E+000	7	...........	0
	711	71.2	2.10918E-001	3.96636E-007	0.00000E+000	2.10991E-001	0.00000E+000	7	...........	0
	714	71.5	2.13961E-001	5.68350E-007	0.00000E+000	2.13991E-001	0.00000E+000	7	...........	0
	717	71.8	2.16903E-001	7.36063E-007	0.00000E+000	2.16991E-001	0.00000E+000	7	...........	0
	720	72.1	2.19917E-001	7.84076E-007	0.00000E+000	2.19991E-001	0.00000E+000	7	...........	0
	723	72.4	2.22909E-001	8.57763E-007	0.00000E+000	2.22991E-001	0.00000E+000	7	...........	0
	726	72.7	2.25902E-001	9.15112E-007	0.00000E+000	2.25991E-001	0.00000E+000	7	...........	0
	729	73	2.28956E-001	8.97107E-007	0.00000E+000	2.28991E-001	0.00000E+000	7	...........	0
	732	73.3	2.31938E-001	9.63792E-007	0.00000E+000	2.31991E-001	0.00000E+000	7	...........	0
	735	73.6	2.34911E-001	9.55456E-007	0.00000E+000	2.34992E-001	0.00000E+000	7	...........	0
	738	73.9	2.37924E-001	1.03615E-006	0.00000E+000	2.37992E-001	0.00000E+000	7	...........	0
	741	74.2	2.40927E-001	9.68794E-007	0.00000E+000	2.40992E-001	0.00000E+000	7	...........	0
	744	74.5	2.43930E-001	9.61458E-007	0.00000E+000	2.43992E-001	0.00000E+000	7	...........	0
	747	74.8	2.46943E-001	9.83798E-007	0.00000E+000	2.46992E-001	0.00000E+000	7	...........	0
	750	75.1	2.49926E-001	1.03615E-006	0.00000E+000	2.49992E-001	0.00000E+000	7	...........	0
	753	75.4	2.52929E-001	1.19719E-006	0.00000E+000	2.52992E-001	0.00000E+000	7	...........	0
	756	75.7	2.55892E-001	1.31795E-005	0.00000E+000	2.55992E-001	0.00000E+000	8	...........	0
	759	76	2.58875E-001	9.90930E-006	0.00000E+000	2.58993E-001	0.00000E+000	8	...........	0
	762	76.3	2.61878E-001	9.17925E-006	0.00000E+000	2.61993E-001	0.00000E+000	8	...........	0
	765	76.6	2.64881E-001	8.68255E-006	0.00000E+000	2.64993E-001	0.00000E+000	8	...........	0
	768	76.9	2.68055E-001	8.73588E-006	0.00000E+000	2.67993E-001	0.00000E+000	8	...........	0
	771	77.2	2.71058E-001	1.00226E-005	0.00000E+000	2.70993E-001	0.00000E+000	8	...........	0
	774	77.5	2.74061E-001	9.52594E-006	0.00000E+000	2.73993E-001	0.00000E+000	8	...........	0
	777	77.8	2.77064E-001	1.03027E-005	0.00000E+000	2.76993E-001	0.00000E+000	8	...........	0
	780	78.1	2.80167E-001	9.39926E-006	0.00000E+000	2.79993E-001	0.00000E+000	8	...........	0
	783	78.4	2.83070E-001	8.19585E-006	0.00000E+000	2.82993E-001	0.00000E+000	8	...........	0
	786	78.7	2.86073E-001	6.95243E-006	0.00000E+000	2.85994E-001	0.00000E+000	8	...........	0
	789	79	2.88976E-001	7.46246E-006	0.00000E+000	2.88994E-001	0.00000E+000	8	...........	0
	792	79.3	2.91979E-001	7.16244E-006	0.00000E+000	2.91994E-001	0.00000E+000	8	...........	0
	795	79.6	2.95082E-001	9.25592E-006	0.00000E+000	2.94994E-001	0.00000E+000	8	...........	0
	798	79.9	2.98085E-001	8.63254E-006	0.00000E+000	2.97994E-001	0.00000E+000	8	...........	0
	801	80.2	3.01088E-001	9.03590E-006	0.00000E+000	3.00994E-001	0.00000E+000	8	...........	0
	804	80.5	3.04091E-001	-3.69982E-006	0.00000E+000	3.03994E-001	0.00000E+000	7	...........	0
	807	80.8	3.07094E-001	-7.47678E-007	0.00000E+000	3.06994E-001	0.00000E+000	7	...........	0
	810	81.1	3.10097E-001	1.65239E-007	0.00000E+000	3.09995E-001	0.00000E+000	7	...........	0
	813	81.4	3.13200E-001	5.59014E-007	0.00000E+000	3.12995E-001	0.00000E+000	7	...........	0
	816	81.7	3.16203E-001	7.51734E-007	0.00000E+000	3.15995E-001	0.00000E+000	7	...........	0
	819	82	3.19106E-001	9.47454E-007	0.00000E+000	3.18995E-001	0.00000E+000	7	...........	0
	822	82.3	3.22109E-001	1.03414E-006	0.00000E+000	3.21995E-001	0.00000E+000	7	...........	0
	825	82.6	3.25112E-001	1.12250E-006	0.00000E+000	3.24995E-001	0.00000E+000	7	...........	0
	828	82.9	3.28015E-001	1.12184E-006	0.00000E+000	3.27995E-001	0.00000E+000	7	...........	0
	831	83.2	3.31018E-001	1.33156E-006	0.00000E+000	3.30995E-001	0.00000E+000	7	...........	0
	834	83.5	3.34021E-001	1.28488E-006	0.00000E+000	3.33996E-001	0.00000E+000	7	...........	0
	837	83.8	3.37024E-001	1.28321E-006	0.00000E+000	3.36996E-001	0.00000E+000	7	...........	0
	840	84.1	3.40027E-001	1.36757E-006	0.00000E+000	3.39996E-001	0.00000E+000	7	...........	0
	843	84.4	3.43130E-001	1.41958E-006	0.00000E+000	3.42996E-001	0.00000E+000	7	...........	0
	846	84.7	3.46033E-001	1.43692E-006	0.00000E+000	3.45996E-001	0.00000E+000	7	...........	0
	849	85	3.49136E-001	1.47160E-006	0.00000E+000	3.48996E-001	0.00000E+000	7	...........	0
	852	85.3	3.52139E-001	1.51194E-006	0.00000E+000	3.51996E-001	0.00000E+000	7	...........	0
	855	85.6	3.55042E-001	2.98274E-005	0.00000E+000	3.54996E-001	0.00000E+000	8	...........	0
	858	85.9	3.58044E-001	2.08067E-005	0.00000E+000	3.57997E-001	0.00000E+000	8	...........	0
	861	86.2	3.61148E-001	1.83366E-005	0.00000E+000	3.60997E-001	0.00000E+000	8	...........	0
	864	86.5	3.64050E-001	1.89366E-005	0.00000E+000	3.63997E-001	0.00000E+000	8	...........	0
	867	86.8	3.67053E-001	1.79232E-005	0.00000E+000	3.66997E-001	0.00000E+000	8	...........	0
	870	87.1	3.70056E-001	1.88399E-005	0.00000E+000	3.69997E-001	0.00000E+000	8	...........	0
	873	87.4	3.73059E-001	1.82632E-005	0.00000E+000	3.72997E-001	0.00000E+000	8	...........	0
	876	87.7	3.76062E-001	1.72231E-005	0.00000E+000	3.75997E-001	0.00000E+000	8	...........	0
	879	88	3.79065E-001	1.27762E-005	0.00000E+000	3.78997E-001	0.00000E+000	8	...........	0
	882	88.3	3.82068E-001	1.20895E-005	0.00000E+000	3.81998E-001	0.00000E+000	8	...........	0
	885	88.6	3.85171E-001	1.28262E-005	0.00000E+000	3.84998E-001	0.00000E+000	8	...........	0
	888	88.9	3.88074E-001	1.04793E-005	0.00000E+000	3.87998E-001	0.00000E+000	8	...........	0
	891	89.2	3.90977E-001	1.15361E-005	0.00000E+000	3.90998E-001	0.00000E+000	8	...........	0
	894	89.5	3.94080E-001	1.15294E-005	0.00000E+000	3.93998E-001	0.00000E+000	8	...........	0
	897	89.8	3.97183E-001	1.13727E-005	0.00000E+000	3.96998E-001	0.00000E+000	8	...........	0
	900	90.1	4.00086E-001	1.12694E-005	0.00000E+000	3.99998E-001	0.00000E+000	8	...........	0
	903	90.4	4.03189E-001	-5.06508E-006	0.00000E+000	4.02998E-001	0.00000E+000	8	...........	0
	906	90.7	4.06192E-001	-1.06076E-006	0.00000E+000	4.05999E-001	0.00000E+000	7	...........	0
	909	91	4.09095E-001	3.65294E-007	0.00000E+000	4.08999E-001	0.00000E+000	7	...........	0
	912	91.3	4.12198E-001	1.09650E-006	0.00000E+000	4.11999E-001	0.00000E+000	7	...........	0
	915	91.6	4.15201E-001	1.44993E-006	0.00000E+000	4.14999E-001	0.00000E+000	7	...........	0
	918	91.9	4.18104E-001	1.79169E-006	0.00000E+000	4.17999E-001	0.00000E+000	7	...........	0
	921	92.2	4.21107E-001	1.98541E-006	0.00000E+000	4.20999E-001	0.00000E+000	7	...........	0
	924	92.5	4.24010E-001	2.12444E-006	0.00000E+000	4.23999E-001	0.00000E+000	7	...........	0
	927	92.8	4.27213E-001	2.31016E-006	0.00000E+000	4.26999E-001	0.00000E+000	7	...........	0
	930	93.1	4.30116E-001	2.44320E-006	0.00000E+000	4.30000E-001	0.00000E+000	7	...........	0
	933	93.4	4.33119E-001	2.59624E-006	0.00000E+000	4.33000E-001	0.00000E+000	7	...........	0
	936	93.7	4.36122E-001	2.58991E-006	0.00000E+000	4.36000E-001	0.00000E+000	7	...........	0
	939	94	4.39125E-001	2.69794E-006	0.00000E+000	4.39000E-001	0.00000E+000	7	...........	0
	942	94.3	4.42128E-001	2.74962E-006	0.00000E+000	4.42000E-001	0.00000E+000	7	...........	0
	945	94.6	4.45131E-001	2.82864E-006	0.00000E+000	4.45000E-001	0.00000E+000	7	...........	0
	948	94.9	4.48134E-001	3.03069E-006	0.00000E+000	4.48000E-001	0.00000E+000	7	...........	0
	951	95.2	4.51137E-001	3.11305E-006	0.00000E+000	4.51000E-001	0.00000E+000	7	...........	0
	954	95.5	4.54040E-001	4.32883E-005	0.00000E+000	4.54001E-001	0.00000E+000	8	...........	0
	957	95.8	4.57143E-001	3.38243E-005	0.00000E+000	4.57001E-001	0.00000E+000	8	...........	0
	960	96.1	4.60146E-001	3.04007E-005	0.00000E+000	4.60001E-001	0.00000E+000	8	...........	0
	963	96.4	4.63149E-001	2.49137E-005	0.00000E+000	4.63001E-001	0.00000E+000	8	...........	0
	966	96.7	4.66052E-001	2.43870E-005	0.00000E+000	4.66001E-001	0.00000E+000	8	...........	0
	969	97	4.69155E-001	2.36703E-005	0.00000E+000	4.69001E-001	0.00000E+000	8	...........	0
	972	97.3	4.72058E-001	2.17468E-005	0.00000E+000	4.72001E-001	0.00000E+000	8	...........	0
	975	97.6	4.75161E-001	2.28269E-005	0.00000E+000	4.75001E-001	0.00000E+000	8	...........	0
	978	97.9	4.78064E-001	2.49237E-005	0.00000E+000	4.78001E-001	0.00000E+000	8	...........	0
	981	98.2	4.81067E-001	2.36403E-005	0.00000E+000	4.81002E-001	0.00000E+000	8	...........	0
	984	98.5	4.84170E-001	2.73372E-005	0.00000E+000	4.84002E-001	0.00000E+000	8	...........	0
	987	98.8	4.87073E-001	2.71905E-005	0.00000E+000	4.87002E-001	0.00000E+000	8	...........	0
	990	99.1	4.90076E-001	2.89040E-005	0.00000E+000	4.90002E-001	0.00000E+000	8	...........	0
	993	99.4	4.93079E-001	3.00774E-005	0.00000E+000	4.93002E-001	0.00000E+000	8	...........	0
	996	99.7	4.96082E-001	3.02074E-005	0.00000E+000	4.96002E-001	0.00000E+000	8	...........	0
	999	100	4.99085E-001	3.09941E-005	0.00000E+000	4.99002E-001	0.00000E+000	8	...........	0
	1002	100.3	5.02188E-001	3.13275E-005	0.00000E+000	5.02002E-001	0.00000E+000	8	...........	0
	1005	100.6	5.05091E-001	-9.00869E-006	0.00000E+000	5.05003E-001	0.00000E+000	8	...........	0
	1008	100.9	5.08194E-001	-1.02542E-006	0.00000E+000	5.08003E-001	0.00000E+000	7	...........	0
	1011	101.2	5.10997E-001	2.18579E-006	0.00000E+000	5.11003E-001	0.00000E+000	7	...........	0
	1014	101.5	5.14200E-001	3.76690E-006	0.00000E+000	5.14003E-001	0.00000E+000	7	...........	0
	1017	101.8	5.17103E-001	4.82052E-006	0.00000E+000	5.17003E-001	0.00000E+000	7	...........	0
	1020	102.1	5.20106E-001	5.55972E-006	0.00000E+000	5.20003E-001	0.00000E+000	7	...........	0
	1023	102.4	5.23109E-001	6.16956E-006	0.00000E+000	5.23003E-001	0.00000E+000	7	...........	0
	1026	102.7	5.26212E-001	6.70070E-006	0.00000E+000	5.26003E-001	0.00000E+000	7	...........	0
	1029	103	5.29115E-001	7.29587E-006	0.00000E+000	5.29004E-001	0.00000E+000	7	...........	0
	1032	103.3	5.32118E-001	7.76766E-006	0.00000E+000	5.32004E-001	0.00000E+000	7	...........	0
	1035	103.6	5.35121E-001	8.25513E-006	0.00000E+000	5.35004E-001	0.00000E+000	7	...........	0
	1038	103.9	5.38124E-001	8.73793E-006	0.00000E+000	5.38004E-001	0.00000E+000	7	...........	0
	1041	104.2	5.41227E-001	9.30259E-006	0.00000E+000	5.41004E-001	0.00000E+000	8	...........	0
	1044	104.5	5.44130E-001	9.97930E-006	0.00000E+000	5.44004E-001	0.00000E+000	8	...........	0
	1047	104.8	5.47133E-001	1.03727E-005	0.00000E+000	5.47004E-001	0.00000E+000	8	...........	0
	1050	105.1	5.50136E-001	1.10160E-005	0.00000E+000	5.50004E-001	0.00000E+000	8	...........	0
	1053	105.4	5.53239E-001	7.76949E-005	0.00000E+000	5.53005E-001	0.00000E+000	9	...........	0
	1056	105.7	5.56242E-001	6.06295E-005	0.00000E+000	5.56005E-001	0.00000E+000	8	...........	0
	1059	106	5.59145E-001	5.38257E-005	0.00000E+000	5.59005E-001	0.00000E+000	8	...........	0
	1062	106.3	5.62048E-001	5.38424E-005	0.00000E+000	5.62005E-001	0.00000E+000	8	...........	0
	1065	106.6	5.65151E-001	5.48358E-005	0.00000E+000	5.65005E-001	0.00000E+000	8	...........	0
	1068	106.9	5.68154E-001	5.92194E-005	0.00000E+000	5.68005E-001	0.00000E+000	8	...........	0
	1071	107.2	5.71157E-001	6.07662E-005	0.00000E+000	5.71005E-001	0.00000E+000	8	...........	0
	1074	107.5	5.74059E-001	6.18996E-005	0.00000E+000	5.74005E-001	0.00000E+000	8	...........	0
	1077	107.8	5.77163E-001	6.50065E-005	0.00000E+000	5.77006E-001	0.00000E+000	8	...........	0
	1080	108.1	5.80166E-001	6.40864E-005	0.00000E+000	5.80006E-001	0.00000E+000	8	...........	0
	1083	108.4	5.83269E-001	6.50298E-005	0.00000E+000	5.83006E-001	0.00000E+000	8	...........	0
	1086	108.7	5.86172E-001	6.20229E-005	0.00000E+000	5.86006E-001	0.00000E+000	8	...........	0
	1089	109	5.89175E-001	6.37564E-005	0.00000E+000	5.89006E-001	0.00000E+000	8	...........	0
	1092	109.3	5.92178E-001	6.67233E-005	0.00000E+000	5.92006E-001	0.00000E+000	8	...........	0
	1095	109.6	5.95181E-001	6.71366E-005	0.00000E+000	5.95006E-001	0.00000E+000	8	...........	0
	1098	109.9	5.98184E-001	6.88301E-005	0.00000E+000	5.98006E-001	0.00000E+000	8	...........	0
	1100	110.1	6.00186E-001	8.04442E-005	0.00000E+000	6.00006E-001	0.00000E+000	8	...........	0