File: LSV ZFO/ZFO_dark_reator2.DTA
EXPLAIN
TAG	LSV
TITLE	LABEL	Linear Sweep Voltammetry	Test &Identifier
DATE	LABEL	7/5/2024	Date
TIME	LABEL	18:26:44	Time
NOTES	NOTES	1	&Notes...

PSTAT	PSTAT	L3FNano	Potentiostat
VINIT	POTEN	-5.00000E-001	F	&Initial E (V)
VFINAL	POTEN	6.00000E-001	F	&Final E (V)
SCANRATE	QUANT	9.99998E+000	&Scan Rate (mV/s)
STEPSIZE	QUANT	1.00000E+000	St&ep Size (mV)
IMODE	SELECTOR	0	I/E Range &Mode
IRANGE	QUANT	1.00000E+001	&Max Current (mA)
AREA	QUANT	1.00000E+000	Electrode &Area (cm^2)
ELECTRODETYPE	SELECTOR	0	Electrode Type
STRIPPING	TOGGLE	F	Used for Stripping
POLARITY	TOGGLE	F	Signal Polarity
CONDIT	TWOPARAM	F	1.50000E+001	0.00000E+000	Conditionin&g	Time(s)	E(V)
DELAY	TWOPARAM	F	3.00000E+001	0.00000E+000	Init. De&lay	Time(s)	Stab.(mV/s)
EQDELAY	QUANT	5.00000E+000	Equil. &Time (s)
IRCOMP	SELECTOR	0	IRCom&p
PFCOR	QUANT	5.00000E+001	PF Corr. (ohm)
SAMPLINGMODE	SELECTOR	0	Sampling &Mode
EOC	QUANT	0	Open Circuit (V)
PSTATMODEL	IQUANT	48	Pstat Model
PSTATSECTION	LABEL	IFC1000-07082	Pstat Section
PSTATSERIALNO	LABEL	07082	Pstat Serial Number
CTRLMODE	IQUANT	1	Control Mode
IESTAB	IQUANT	2	I/E Stability
CASPEED	IQUANT	2	Control Amp Speed
CONVENTION	IQUANT	1	Current Convention
ICHRANGE	IQUANT	2	Ich Range
ICHRANGEMODE	TOGGLE	F	Ich Auto Range
ICHOFFSETENABLE	TOGGLE	F	Ich Offset Enable
ICHOFFSET	QUANT	0	Ich Offset (V)
ICHFILTER	IQUANT	3	Ich Filter
VCHRANGE	IQUANT	2	Vch Range
VCHRANGEMODE	TOGGLE	T	Vch Auto Range
VCHOFFSETENABLE	TOGGLE	F	Vch Offset Enable
VCHOFFSET	QUANT	0	Vch Offset (V)
VCHFILTER	IQUANT	3	Vch Filter
IERANGELOWERLIMIT	IQUANT	4	I/E Range Lower Limit
IERANGEMODE	TOGGLE	T	I/E AutoRange
IERANGE	IQUANT	11	I/E Range
ACHSELECT	IQUANT	4	Ach Select
CABLEID	IQUANT	14	Cable ID
DCCALDATE	LABEL	7/3/2024	DC Calibration Date
ACCALDATE	LABEL	7/3/2024	AC Calibration Date
FRAMEWORKVERSION	QUANT	6.24	Framework Version
INSTRUMENTVERSION	LABEL	3.28	Instrument Version
EXPERIMENTABORTED	TOGGLE	T	Experiment Aborted
CURVE	TABLE	771
	Pt	T	Vf	Im	Vu	Sig	Ach	IERange	Over	Cycle
	#	s	V vs. Ref.	A	V	V	V	#	bits	#
	0	0.1	-5.00110E-001	1.93704E-006	0.00000E+000	-4.99988E-001	0.00000E+000	11	...........	0
	2	0.3	-4.98208E-001	-2.44439E-006	0.00000E+000	-4.97988E-001	0.00000E+000	9	...........	0
	4	0.5	-4.96106E-001	-2.33411E-006	0.00000E+000	-4.95988E-001	0.00000E+000	7	...........	0
	6	0.7	-4.94104E-001	-2.21341E-006	0.00000E+000	-4.93988E-001	0.00000E+000	7	...........	0
	8	0.9	-4.92102E-001	-2.14673E-006	0.00000E+000	-4.91988E-001	0.00000E+000	7	...........	0
	10	1.1	-4.90000E-001	-2.09738E-006	0.00000E+000	-4.89988E-001	0.00000E+000	7	...........	0
	12	1.3	-4.88098E-001	-1.91867E-006	0.00000E+000	-4.87988E-001	0.00000E+000	7	...........	0
	14	1.5	-4.86096E-001	-1.92834E-006	0.00000E+000	-4.85988E-001	0.00000E+000	7	...........	0
	16	1.7	-4.84094E-001	-1.81264E-006	0.00000E+000	-4.83988E-001	0.00000E+000	7	...........	0
	18	1.9	-4.82092E-001	-1.74562E-006	0.00000E+000	-4.81988E-001	0.00000E+000	7	...........	0
	20	2.1	-4.80090E-001	-1.69927E-006	0.00000E+000	-4.79988E-001	0.00000E+000	7	...........	0
	22	2.3	-4.78088E-001	-1.55790E-006	0.00000E+000	-4.77988E-001	0.00000E+000	7	...........	0
	24	2.5	-4.76086E-001	-1.54823E-006	0.00000E+000	-4.75987E-001	0.00000E+000	7	...........	0
	26	2.7	-4.73984E-001	-1.45821E-006	0.00000E+000	-4.73987E-001	0.00000E+000	7	...........	0
	28	2.9	-4.72082E-001	-1.35218E-006	0.00000E+000	-4.71987E-001	0.00000E+000	7	...........	0
	30	3.1	-4.70080E-001	-1.31550E-006	0.00000E+000	-4.69987E-001	0.00000E+000	7	...........	0
	32	3.3	-4.67978E-001	-1.34618E-006	0.00000E+000	-4.67987E-001	0.00000E+000	7	...........	0
	34	3.5	-4.66076E-001	-1.30483E-006	0.00000E+000	-4.65987E-001	0.00000E+000	7	...........	0
	36	3.7	-4.64074E-001	-1.28649E-006	0.00000E+000	-4.63987E-001	0.00000E+000	7	...........	0
	38	3.9	-4.61972E-001	-1.25182E-006	0.00000E+000	-4.61987E-001	0.00000E+000	7	...........	0
	40	4.1	-4.60070E-001	-1.23615E-006	0.00000E+000	-4.59987E-001	0.00000E+000	7	...........	0
	42	4.3	-4.58068E-001	-1.29983E-006	0.00000E+000	-4.57987E-001	0.00000E+000	7	...........	0
	44	4.5	-4.56066E-001	-1.28516E-006	0.00000E+000	-4.55987E-001	0.00000E+000	7	...........	0
	46	4.7	-4.54064E-001	-1.28182E-006	0.00000E+000	-4.53987E-001	0.00000E+000	7	...........	0
	48	4.9	-4.52162E-001	-1.26682E-006	0.00000E+000	-4.51987E-001	0.00000E+000	7	...........	0
	50	5.1	-4.50060E-001	-1.17513E-006	0.00000E+000	-4.49986E-001	0.00000E+000	7	...........	0
	52	5.3	-4.48058E-001	-1.19580E-006	0.00000E+000	-4.47986E-001	0.00000E+000	7	...........	0
	54	5.5	-4.46056E-001	-1.10077E-006	0.00000E+000	-4.45986E-001	0.00000E+000	7	...........	0
	56	5.7	-4.44054E-001	-1.07310E-006	0.00000E+000	-4.43986E-001	0.00000E+000	7	...........	0
	58	5.9	-4.42152E-001	-1.04909E-006	0.00000E+000	-4.41986E-001	0.00000E+000	7	...........	0
	60	6.1	-4.40050E-001	-9.74073E-007	0.00000E+000	-4.39986E-001	0.00000E+000	7	...........	0
	62	6.3	-4.38048E-001	-9.45732E-007	0.00000E+000	-4.37986E-001	0.00000E+000	7	...........	0
	64	6.5	-4.36046E-001	-9.50400E-007	0.00000E+000	-4.35986E-001	0.00000E+000	7	...........	0
	66	6.7	-4.34144E-001	-8.46372E-007	0.00000E+000	-4.33986E-001	0.00000E+000	7	...........	0
	68	6.9	-4.32042E-001	-7.78687E-007	0.00000E+000	-4.31986E-001	0.00000E+000	7	...........	0
	70	7.1	-4.30040E-001	-7.36342E-007	0.00000E+000	-4.29986E-001	0.00000E+000	7	...........	0
	72	7.3	-4.28038E-001	-7.00665E-007	0.00000E+000	-4.27986E-001	0.00000E+000	7	...........	0
	74	7.5	-4.26036E-001	-6.82660E-007	0.00000E+000	-4.25985E-001	0.00000E+000	7	...........	0
	76	7.7	-4.24134E-001	-6.96331E-007	0.00000E+000	-4.23985E-001	0.00000E+000	7	...........	0
	78	7.9	-4.22032E-001	-6.56653E-007	0.00000E+000	-4.21985E-001	0.00000E+000	7	...........	0
	80	8.1	-4.19930E-001	-6.48984E-007	0.00000E+000	-4.19985E-001	0.00000E+000	7	...........	0
	82	8.3	-4.18128E-001	-7.07000E-007	0.00000E+000	-4.17985E-001	0.00000E+000	7	...........	0
	84	8.5	-4.16026E-001	-6.64989E-007	0.00000E+000	-4.15985E-001	0.00000E+000	7	...........	0
	86	8.7	-4.14024E-001	-7.20671E-007	0.00000E+000	-4.13985E-001	0.00000E+000	7	...........	0
	88	8.9	-4.12022E-001	-7.49679E-007	0.00000E+000	-4.11985E-001	0.00000E+000	7	...........	0
	90	9.1	-4.10120E-001	-8.02026E-007	0.00000E+000	-4.09985E-001	0.00000E+000	7	...........	0
	92	9.3	-4.08018E-001	-7.70351E-007	0.00000E+000	-4.07985E-001	0.00000E+000	7	...........	0
	94	9.5	-4.06016E-001	-7.40009E-007	0.00000E+000	-4.05985E-001	0.00000E+000	7	...........	0
	96	9.7	-4.04014E-001	-7.91690E-007	0.00000E+000	-4.03985E-001	0.00000E+000	7	...........	0
	98	9.9	-4.02012E-001	-7.31007E-007	0.00000E+000	-4.01984E-001	0.00000E+000	7	...........	0
	100	10.1	-3.99910E-001	-8.15030E-007	0.00000E+000	-3.99984E-001	0.00000E+000	7	...........	0
	102	10.3	-3.98108E-001	-7.98692E-007	0.00000E+000	-3.97984E-001	0.00000E+000	7	...........	0
	104	10.5	-3.96006E-001	-6.77992E-007	0.00000E+000	-3.95984E-001	0.00000E+000	7	...........	0
	106	10.7	-3.94004E-001	-7.16336E-007	0.00000E+000	-3.93984E-001	0.00000E+000	7	...........	0
	108	10.9	-3.92102E-001	-6.46650E-007	0.00000E+000	-3.91984E-001	0.00000E+000	7	...........	0
	110	11.1	-3.90000E-001	-6.01304E-007	0.00000E+000	-3.89984E-001	0.00000E+000	7	...........	0
	112	11.3	-3.87998E-001	-6.39982E-007	0.00000E+000	-3.87984E-001	0.00000E+000	7	...........	0
	114	11.5	-3.85996E-001	-5.95303E-007	0.00000E+000	-3.85984E-001	0.00000E+000	7	...........	0
	116	11.7	-3.83894E-001	-5.54625E-007	0.00000E+000	-3.83984E-001	0.00000E+000	7	...........	0
	118	11.9	-3.82092E-001	-5.94636E-007	0.00000E+000	-3.81984E-001	0.00000E+000	7	...........	0
	120	12.1	-3.80090E-001	-5.70629E-007	0.00000E+000	-3.79984E-001	0.00000E+000	7	...........	0
	122	12.3	-3.77988E-001	-5.11613E-007	0.00000E+000	-3.77984E-001	0.00000E+000	7	...........	0
	124	12.5	-3.75986E-001	-5.67962E-007	0.00000E+000	-3.75983E-001	0.00000E+000	7	...........	0
	126	12.7	-3.73984E-001	-5.19282E-007	0.00000E+000	-3.73983E-001	0.00000E+000	7	...........	0
	128	12.9	-3.72182E-001	-4.94942E-007	0.00000E+000	-3.71983E-001	0.00000E+000	7	...........	0
	130	13.1	-3.69980E-001	-4.75270E-007	0.00000E+000	-3.69983E-001	0.00000E+000	7	...........	0
	132	13.3	-3.68078E-001	-5.18615E-007	0.00000E+000	-3.67983E-001	0.00000E+000	7	...........	0
	134	13.5	-3.65976E-001	-4.09252E-007	0.00000E+000	-3.65983E-001	0.00000E+000	7	...........	0
	136	13.7	-3.63974E-001	-4.68935E-007	0.00000E+000	-3.63983E-001	0.00000E+000	7	...........	0
	138	13.9	-3.61972E-001	-4.27257E-007	0.00000E+000	-3.61983E-001	0.00000E+000	7	...........	0
	140	14.1	-3.60070E-001	-3.54903E-007	0.00000E+000	-3.59983E-001	0.00000E+000	7	...........	0
	142	14.3	-3.58068E-001	-3.54570E-007	0.00000E+000	-3.57983E-001	0.00000E+000	7	...........	0
	144	14.5	-3.55966E-001	-2.95220E-007	0.00000E+000	-3.55983E-001	0.00000E+000	7	...........	0
	146	14.7	-3.54064E-001	-3.08224E-007	0.00000E+000	-3.53983E-001	0.00000E+000	7	...........	0
	148	14.9	-3.51962E-001	-2.93220E-007	0.00000E+000	-3.51982E-001	0.00000E+000	7	...........	0
	150	15.1	-3.49960E-001	-2.73548E-007	0.00000E+000	-3.49982E-001	0.00000E+000	7	...........	0
	152	15.3	-3.48058E-001	-3.13559E-007	0.00000E+000	-3.47982E-001	0.00000E+000	7	...........	0
	154	15.5	-3.46056E-001	-2.37871E-007	0.00000E+000	-3.45982E-001	0.00000E+000	7	...........	0
	156	15.7	-3.44054E-001	-2.02195E-007	0.00000E+000	-3.43982E-001	0.00000E+000	7	...........	0
	158	15.9	-3.42052E-001	-2.11864E-007	0.00000E+000	-3.41982E-001	0.00000E+000	7	...........	0
	160	16.1	-3.40050E-001	-2.02862E-007	0.00000E+000	-3.39982E-001	0.00000E+000	7	...........	0
	162	16.3	-3.38048E-001	-2.78549E-007	0.00000E+000	-3.37982E-001	0.00000E+000	7	...........	0
	164	16.5	-3.36046E-001	-2.62878E-007	0.00000E+000	-3.35982E-001	0.00000E+000	7	...........	0
	166	16.7	-3.34044E-001	-2.35537E-007	0.00000E+000	-3.33982E-001	0.00000E+000	7	...........	0
	168	16.9	-3.31942E-001	-2.80550E-007	0.00000E+000	-3.31982E-001	0.00000E+000	7	...........	0
	170	17.1	-3.29940E-001	-2.17199E-007	0.00000E+000	-3.29982E-001	0.00000E+000	7	...........	0
	172	17.3	-3.28038E-001	-3.26229E-007	0.00000E+000	-3.27981E-001	0.00000E+000	7	...........	0
	174	17.5	-3.25936E-001	-3.27229E-007	0.00000E+000	-3.25981E-001	0.00000E+000	7	...........	0
	176	17.7	-3.23934E-001	-3.67574E-007	0.00000E+000	-3.23981E-001	0.00000E+000	7	...........	0
	178	17.9	-3.22032E-001	-3.03889E-007	0.00000E+000	-3.21981E-001	0.00000E+000	7	...........	0
	180	18.1	-3.19930E-001	-2.95887E-007	0.00000E+000	-3.19981E-001	0.00000E+000	7	...........	0
	182	18.3	-3.18028E-001	-3.75576E-007	0.00000E+000	-3.17981E-001	0.00000E+000	7	...........	0
	184	18.5	-3.16026E-001	-3.93914E-007	0.00000E+000	-3.15981E-001	0.00000E+000	7	...........	0
	186	18.7	-3.14024E-001	-3.92914E-007	0.00000E+000	-3.13981E-001	0.00000E+000	7	...........	0
	188	18.9	-3.12022E-001	-4.17587E-007	0.00000E+000	-3.11981E-001	0.00000E+000	7	...........	0
	190	19.1	-3.10020E-001	-4.02250E-007	0.00000E+000	-3.09981E-001	0.00000E+000	7	...........	0
	192	19.3	-3.08018E-001	-4.26256E-007	0.00000E+000	-3.07981E-001	0.00000E+000	7	...........	0
	194	19.5	-3.06016E-001	-4.15920E-007	0.00000E+000	-3.05981E-001	0.00000E+000	7	...........	0
	196	19.7	-3.03914E-001	-4.67934E-007	0.00000E+000	-3.03980E-001	0.00000E+000	7	...........	0
	198	19.9	-3.02013E-001	-4.50930E-007	0.00000E+000	-3.01980E-001	0.00000E+000	7	...........	0
	200	20.1	-3.00011E-001	-4.61599E-007	0.00000E+000	-2.99980E-001	0.00000E+000	7	...........	0
	202	20.3	-2.97908E-001	-4.49263E-007	0.00000E+000	-2.97980E-001	0.00000E+000	7	...........	0
	204	20.5	-2.96007E-001	-4.67934E-007	0.00000E+000	-2.95980E-001	0.00000E+000	7	...........	0
	206	20.7	-2.93904E-001	-4.55931E-007	0.00000E+000	-2.93980E-001	0.00000E+000	7	...........	0
	208	20.9	-2.92103E-001	-4.58932E-007	0.00000E+000	-2.91980E-001	0.00000E+000	7	...........	0
	210	21.1	-2.89900E-001	-5.36287E-007	0.00000E+000	-2.89980E-001	0.00000E+000	7	...........	0
	212	21.3	-2.87999E-001	-4.84606E-007	0.00000E+000	-2.87980E-001	0.00000E+000	7	...........	0
	214	21.5	-2.85997E-001	-4.36593E-007	0.00000E+000	-2.85980E-001	0.00000E+000	7	...........	0
	216	21.7	-2.84095E-001	-4.90941E-007	0.00000E+000	-2.83980E-001	0.00000E+000	7	...........	0
	218	21.9	-2.82193E-001	-4.03583E-007	0.00000E+000	-2.81980E-001	0.00000E+000	7	...........	0
	220	22.1	-2.79991E-001	-4.21922E-007	0.00000E+000	-2.79979E-001	0.00000E+000	7	...........	0
	222	22.3	-2.77989E-001	-4.51930E-007	0.00000E+000	-2.77979E-001	0.00000E+000	7	...........	0
	224	22.5	-2.75987E-001	-3.55237E-007	0.00000E+000	-2.75979E-001	0.00000E+000	7	...........	0
	226	22.7	-2.73985E-001	-3.27896E-007	0.00000E+000	-2.73979E-001	0.00000E+000	7	...........	0
	228	22.9	-2.71983E-001	-2.63878E-007	0.00000E+000	-2.71979E-001	0.00000E+000	7	...........	0
	230	23.1	-2.69981E-001	-2.43873E-007	0.00000E+000	-2.69979E-001	0.00000E+000	7	...........	0
	232	23.3	-2.67979E-001	-2.16532E-007	0.00000E+000	-2.67979E-001	0.00000E+000	7	...........	0
	234	23.5	-2.65977E-001	-1.55182E-007	0.00000E+000	-2.65979E-001	0.00000E+000	7	...........	0
	236	23.7	-2.64075E-001	-2.10864E-007	0.00000E+000	-2.63979E-001	0.00000E+000	7	...........	0
	238	23.9	-2.61973E-001	-1.07836E-007	0.00000E+000	-2.61979E-001	0.00000E+000	7	...........	0
	240	24.1	-2.59971E-001	-5.54878E-008	0.00000E+000	-2.59979E-001	0.00000E+000	7	...........	0
	242	24.3	-2.58069E-001	-6.88249E-008	0.00000E+000	-2.57979E-001	0.00000E+000	7	...........	0
	244	24.5	-2.55967E-001	-1.98114E-008	0.00000E+000	-2.55979E-001	0.00000E+000	7	...........	0
	246	24.7	-2.53965E-001	-8.48292E-008	0.00000E+000	-2.53978E-001	0.00000E+000	7	...........	0
	248	24.9	-2.51963E-001	-3.80699E-009	0.00000E+000	-2.51978E-001	0.00000E+000	7	...........	0
	250	25.1	-2.49961E-001	-4.24843E-008	0.00000E+000	-2.49978E-001	0.00000E+000	7	...........	0
	252	25.3	-2.47959E-001	-2.24788E-008	0.00000E+000	-2.47978E-001	0.00000E+000	7	...........	0
	254	25.5	-2.46057E-001	-1.28095E-008	0.00000E+000	-2.45978E-001	0.00000E+000	7	...........	0
	256	25.7	-2.44055E-001	-5.81553E-008	0.00000E+000	-2.43978E-001	0.00000E+000	7	...........	0
	258	25.9	-2.41993E-001	-6.14096E-009	0.00000E+000	-2.41978E-001	0.00000E+000	7	...........	0
	260	26.1	-2.39981E-001	-4.47384E-009	0.00000E+000	-2.39978E-001	0.00000E+000	7	...........	0
	262	26.3	-2.37939E-001	-3.91500E-008	0.00000E+000	-2.37978E-001	0.00000E+000	7	...........	0
	264	26.5	-2.35987E-001	2.95355E-008	0.00000E+000	-2.35978E-001	0.00000E+000	7	...........	0
	266	26.7	-2.33915E-001	-4.48183E-008	0.00000E+000	-2.33978E-001	0.00000E+000	7	...........	0
	268	26.9	-2.32003E-001	-3.81498E-008	0.00000E+000	-2.31978E-001	0.00000E+000	7	...........	0
	270	27.1	-2.29971E-001	2.68681E-008	0.00000E+000	-2.29977E-001	0.00000E+000	7	...........	0
	272	27.3	-2.27979E-001	-2.61465E-008	0.00000E+000	-2.27977E-001	0.00000E+000	7	...........	0
	274	27.5	-2.25947E-001	8.52974E-009	0.00000E+000	-2.25977E-001	0.00000E+000	7	...........	0
	276	27.7	-2.23965E-001	-1.31429E-008	0.00000E+000	-2.23977E-001	0.00000E+000	7	...........	0
	278	27.9	-2.21963E-001	-3.04810E-008	0.00000E+000	-2.21977E-001	0.00000E+000	7	...........	0
	280	28.1	-2.19981E-001	2.15333E-008	0.00000E+000	-2.19977E-001	0.00000E+000	7	...........	0
	282	28.3	-2.17969E-001	-2.14785E-008	0.00000E+000	-2.17977E-001	0.00000E+000	7	...........	0
	284	28.5	-2.15977E-001	2.19466E-009	0.00000E+000	-2.15977E-001	0.00000E+000	7	...........	0
	286	28.7	-2.13955E-001	-2.13986E-009	0.00000E+000	-2.13977E-001	0.00000E+000	7	...........	0
	288	28.9	-2.11933E-001	8.19631E-009	0.00000E+000	-2.11977E-001	0.00000E+000	7	...........	0
	290	29.1	-2.09951E-001	-2.84804E-008	0.00000E+000	-2.09977E-001	0.00000E+000	7	...........	0
	292	29.3	-2.07989E-001	-3.71495E-008	0.00000E+000	-2.07977E-001	0.00000E+000	7	...........	0
	294	29.5	-2.05977E-001	-4.08172E-008	0.00000E+000	-2.05976E-001	0.00000E+000	7	...........	0
	296	29.7	-2.03975E-001	5.86234E-009	0.00000E+000	-2.03976E-001	0.00000E+000	7	...........	0
	298	29.9	-2.01993E-001	1.25308E-008	0.00000E+000	-2.01976E-001	0.00000E+000	7	...........	0
	300	30.1	-1.99971E-001	5.75432E-008	0.00000E+000	-1.99976E-001	0.00000E+000	7	...........	0
	302	30.3	-1.97979E-001	-2.21454E-008	0.00000E+000	-1.97976E-001	0.00000E+000	7	...........	0
	304	30.5	-1.95947E-001	5.28753E-008	0.00000E+000	-1.95976E-001	0.00000E+000	7	...........	0
	306	30.7	-1.93975E-001	7.25473E-008	0.00000E+000	-1.93976E-001	0.00000E+000	7	...........	0
	308	30.9	-1.91993E-001	1.08557E-007	0.00000E+000	-1.91976E-001	0.00000E+000	7	...........	0
	310	31.1	-1.90012E-001	1.10224E-007	0.00000E+000	-1.89976E-001	0.00000E+000	7	...........	0
	312	31.3	-1.88000E-001	1.56904E-007	0.00000E+000	-1.87976E-001	0.00000E+000	7	...........	0
	314	31.5	-1.85998E-001	1.99249E-007	0.00000E+000	-1.85976E-001	0.00000E+000	7	...........	0
	316	31.7	-1.84016E-001	2.32591E-007	0.00000E+000	-1.83976E-001	0.00000E+000	7	...........	0
	318	31.9	-1.82014E-001	2.63266E-007	0.00000E+000	-1.81975E-001	0.00000E+000	7	...........	0
	320	32.1	-1.80012E-001	3.18281E-007	0.00000E+000	-1.79975E-001	0.00000E+000	7	...........	0
	322	32.3	-1.78010E-001	2.63600E-007	0.00000E+000	-1.77975E-001	0.00000E+000	7	...........	0
	324	32.5	-1.75988E-001	3.65628E-007	0.00000E+000	-1.75975E-001	0.00000E+000	7	...........	0
	326	32.7	-1.73956E-001	3.96636E-007	0.00000E+000	-1.73975E-001	0.00000E+000	7	...........	0
	328	32.9	-1.71984E-001	4.00637E-007	0.00000E+000	-1.71975E-001	0.00000E+000	7	...........	0
	330	33.1	-1.69992E-001	4.20976E-007	0.00000E+000	-1.69975E-001	0.00000E+000	7	...........	0
	332	33.3	-1.68010E-001	4.69990E-007	0.00000E+000	-1.68025E-001	0.00000E+000	7	...........	0
	334	33.5	-1.65998E-001	4.58320E-007	0.00000E+000	-1.66025E-001	0.00000E+000	7	...........	0
	336	33.7	-1.64026E-001	4.50985E-007	0.00000E+000	-1.64025E-001	0.00000E+000	7	...........	0
	338	33.9	-1.61994E-001	4.00971E-007	0.00000E+000	-1.62025E-001	0.00000E+000	7	...........	0
	340	34.1	-1.60002E-001	4.66322E-007	0.00000E+000	-1.60025E-001	0.00000E+000	7	...........	0
	342	34.3	-1.58050E-001	3.78631E-007	0.00000E+000	-1.58025E-001	0.00000E+000	7	...........	0
	344	34.5	-1.56008E-001	4.79659E-007	0.00000E+000	-1.56024E-001	0.00000E+000	7	...........	0
	346	34.7	-1.54046E-001	4.50318E-007	0.00000E+000	-1.54024E-001	0.00000E+000	7	...........	0
	348	34.9	-1.52044E-001	3.98637E-007	0.00000E+000	-1.52024E-001	0.00000E+000	7	...........	0
	350	35.1	-1.50022E-001	4.36314E-007	0.00000E+000	-1.50024E-001	0.00000E+000	7	...........	0
	352	35.3	-1.48050E-001	4.08306E-007	0.00000E+000	-1.48024E-001	0.00000E+000	7	...........	0
	354	35.5	-1.46038E-001	3.82299E-007	0.00000E+000	-1.46024E-001	0.00000E+000	7	...........	0
	356	35.7	-1.44046E-001	3.88301E-007	0.00000E+000	-1.44024E-001	0.00000E+000	7	...........	0
	358	35.9	-1.42084E-001	3.72963E-007	0.00000E+000	-1.42024E-001	0.00000E+000	7	...........	0
	360	36.1	-1.40012E-001	3.72296E-007	0.00000E+000	-1.40024E-001	0.00000E+000	7	...........	0
	362	36.3	-1.38050E-001	3.40288E-007	0.00000E+000	-1.38024E-001	0.00000E+000	7	...........	0
	364	36.5	-1.36078E-001	2.85272E-007	0.00000E+000	-1.36024E-001	0.00000E+000	7	...........	0
	366	36.7	-1.34096E-001	3.09946E-007	0.00000E+000	-1.34024E-001	0.00000E+000	7	...........	0
	368	36.9	-1.32074E-001	3.12613E-007	0.00000E+000	-1.32023E-001	0.00000E+000	7	...........	0
	370	37.1	-1.30062E-001	3.49290E-007	0.00000E+000	-1.30023E-001	0.00000E+000	7	...........	0
	372	37.3	-1.28050E-001	3.76631E-007	0.00000E+000	-1.28023E-001	0.00000E+000	7	...........	0
	374	37.5	-1.26078E-001	3.62294E-007	0.00000E+000	-1.26023E-001	0.00000E+000	7	...........	0
	376	37.7	-1.24066E-001	4.12641E-007	0.00000E+000	-1.24023E-001	0.00000E+000	7	...........	0
	378	37.9	-1.22114E-001	4.03305E-007	0.00000E+000	-1.22023E-001	0.00000E+000	7	...........	0
	380	38.1	-1.20072E-001	4.61321E-007	0.00000E+000	-1.20023E-001	0.00000E+000	7	...........	0
	382	38.3	-1.18070E-001	4.57320E-007	0.00000E+000	-1.18023E-001	0.00000E+000	7	...........	0
	384	38.5	-1.16098E-001	4.54652E-007	0.00000E+000	-1.16023E-001	0.00000E+000	7	...........	0
	386	38.7	-1.14096E-001	4.66656E-007	0.00000E+000	-1.14023E-001	0.00000E+000	7	...........	0
	388	38.9	-1.12064E-001	4.87328E-007	0.00000E+000	-1.12023E-001	0.00000E+000	7	...........	0
	390	39.1	-1.10042E-001	5.63015E-007	0.00000E+000	-1.10023E-001	0.00000E+000	7	...........	0
	392	39.3	-1.08110E-001	5.63349E-007	0.00000E+000	-1.08022E-001	0.00000E+000	7	...........	0
	394	39.5	-1.06068E-001	5.98025E-007	0.00000E+000	-1.06022E-001	0.00000E+000	7	...........	0
	396	39.7	-1.04096E-001	6.08695E-007	0.00000E+000	-1.04022E-001	0.00000E+000	7	...........	0
	398	39.9	-1.02094E-001	6.67377E-007	0.00000E+000	-1.02022E-001	0.00000E+000	7	...........	0
	400	40.1	-1.00092E-001	6.47372E-007	0.00000E+000	-1.00022E-001	0.00000E+000	7	...........	0
	402	40.3	-9.80900E-002	6.66711E-007	0.00000E+000	-9.80221E-002	0.00000E+000	7	...........	0
	404	40.5	-9.60780E-002	7.51067E-007	0.00000E+000	-9.60220E-002	0.00000E+000	7	...........	0
	406	40.7	-9.41060E-002	7.51400E-007	0.00000E+000	-9.40219E-002	0.00000E+000	7	...........	0
	408	40.9	-9.20640E-002	7.54401E-007	0.00000E+000	-9.20218E-002	0.00000E+000	7	...........	0
	410	41.1	-9.00520E-002	7.32062E-007	0.00000E+000	-9.00217E-002	0.00000E+000	7	...........	0
	412	41.3	-8.80500E-002	8.08416E-007	0.00000E+000	-8.80217E-002	0.00000E+000	7	...........	0
	414	41.5	-8.60480E-002	7.77741E-007	0.00000E+000	-8.60216E-002	0.00000E+000	7	...........	0
	416	41.7	-8.40761E-002	8.48760E-007	0.00000E+000	-8.40215E-002	0.00000E+000	7	...........	0
	418	41.9	-8.20541E-002	8.47093E-007	0.00000E+000	-8.20214E-002	0.00000E+000	7	...........	0
	420	42.1	-8.01021E-002	8.49761E-007	0.00000E+000	-8.00213E-002	0.00000E+000	7	...........	0
	422	42.3	-7.80601E-002	8.55429E-007	0.00000E+000	-7.80212E-002	0.00000E+000	7	...........	0
	424	42.5	-7.60681E-002	8.76768E-007	0.00000E+000	-7.60211E-002	0.00000E+000	7	...........	0
	426	42.7	-7.40661E-002	9.21114E-007	0.00000E+000	-7.40211E-002	0.00000E+000	7	...........	0
	428	42.9	-7.20541E-002	8.78435E-007	0.00000E+000	-7.20210E-002	0.00000E+000	7	...........	0
	430	43.1	-7.00721E-002	8.44426E-007	0.00000E+000	-7.00209E-002	0.00000E+000	7	...........	0
	432	43.3	-6.80902E-002	9.17780E-007	0.00000E+000	-6.80208E-002	0.00000E+000	7	...........	0
	434	43.5	-6.60782E-002	8.86104E-007	0.00000E+000	-6.60208E-002	0.00000E+000	7	...........	0
	436	43.7	-6.40762E-002	8.95440E-007	0.00000E+000	-6.40207E-002	0.00000E+000	7	...........	0
	438	43.9	-6.20542E-002	9.12111E-007	0.00000E+000	-6.20206E-002	0.00000E+000	7	...........	0
	440	44.1	-6.00922E-002	9.39452E-007	0.00000E+000	-6.00205E-002	0.00000E+000	7	...........	0
	442	44.3	-5.80402E-002	8.59097E-007	0.00000E+000	-5.80204E-002	0.00000E+000	7	...........	0
	444	44.5	-5.60482E-002	9.22447E-007	0.00000E+000	-5.60203E-002	0.00000E+000	7	...........	0
	446	44.7	-5.40262E-002	9.05109E-007	0.00000E+000	-5.40203E-002	0.00000E+000	7	...........	0
	448	44.9	-5.20342E-002	8.67432E-007	0.00000E+000	-5.20202E-002	0.00000E+000	7	...........	0
	450	45.1	-5.00422E-002	9.18113E-007	0.00000E+000	-5.00201E-002	0.00000E+000	7	...........	0
	452	45.3	-4.80502E-002	9.05109E-007	0.00000E+000	-4.80200E-002	0.00000E+000	7	...........	0
	454	45.5	-4.60582E-002	8.88438E-007	0.00000E+000	-4.60199E-002	0.00000E+000	7	...........	0
	456	45.7	-4.40462E-002	9.53123E-007	0.00000E+000	-4.40199E-002	0.00000E+000	7	...........	0
	458	45.9	-4.20643E-002	9.33450E-007	0.00000E+000	-4.20198E-002	0.00000E+000	7	...........	0
	460	46.1	-4.00523E-002	9.07777E-007	0.00000E+000	-4.00197E-002	0.00000E+000	7	...........	0
	462	46.3	-3.80603E-002	9.51455E-007	0.00000E+000	-3.80196E-002	0.00000E+000	7	...........	0
	464	46.5	-3.60883E-002	9.37785E-007	0.00000E+000	-3.60195E-002	0.00000E+000	7	...........	0
	466	46.7	-3.40663E-002	1.01081E-006	0.00000E+000	-3.40194E-002	0.00000E+000	7	...........	0
	468	46.9	-3.20543E-002	9.95468E-007	0.00000E+000	-3.20194E-002	0.00000E+000	7	...........	0
	470	47.1	-3.00823E-002	1.03214E-006	0.00000E+000	-3.00193E-002	0.00000E+000	7	...........	0
	472	47.3	-2.80403E-002	1.01981E-006	0.00000E+000	-2.80192E-002	0.00000E+000	7	...........	0
	474	47.5	-2.60683E-002	1.07649E-006	0.00000E+000	-2.60191E-002	0.00000E+000	7	...........	0
	476	47.7	-2.40263E-002	1.04348E-006	0.00000E+000	-2.40190E-002	0.00000E+000	7	...........	0
	478	47.9	-2.20111E-002	1.04081E-006	0.00000E+000	-2.20190E-002	0.00000E+000	7	...........	0
	480	48.1	-2.00121E-002	1.04815E-006	0.00000E+000	-2.00189E-002	0.00000E+000	7	...........	0
	482	48.3	-1.80561E-002	1.04181E-006	0.00000E+000	-1.80188E-002	0.00000E+000	7	...........	0
	484	48.5	-1.60641E-002	1.01381E-006	0.00000E+000	-1.60187E-002	0.00000E+000	7	...........	0
	486	48.7	-1.40591E-002	1.10750E-006	0.00000E+000	-1.40186E-002	0.00000E+000	7	...........	0
	488	48.9	-1.20271E-002	1.03548E-006	0.00000E+000	-1.20185E-002	0.00000E+000	7	...........	0
	490	49.1	-1.00401E-002	1.07115E-006	0.00000E+000	-1.00185E-002	0.00000E+000	7	...........	0
	492	49.3	-8.07318E-003	1.05682E-006	0.00000E+000	-8.01838E-003	0.00000E+000	7	...........	0
	494	49.5	-6.02114E-003	1.05848E-006	0.00000E+000	-6.01830E-003	0.00000E+000	7	...........	0
	496	49.7	-4.06119E-003	1.04748E-006	0.00000E+000	-4.01822E-003	0.00000E+000	7	...........	0
	498	49.9	-2.03617E-003	1.09816E-006	0.00000E+000	-2.01814E-003	0.00000E+000	7	...........	0
	500	50.1	-6.42115E-005	1.05882E-006	0.00000E+000	-1.80528E-005	0.00000E+000	7	...........	0
	502	50.3	1.94879E-003	1.10716E-006	0.00000E+000	1.98203E-003	0.00000E+000	7	...........	0
	504	50.5	3.94378E-003	1.10983E-006	0.00000E+000	3.98211E-003	0.00000E+000	7	...........	0
	506	50.7	5.93376E-003	1.09950E-006	0.00000E+000	5.98219E-003	0.00000E+000	7	...........	0
	508	50.9	7.95677E-003	1.07282E-006	0.00000E+000	7.98227E-003	0.00000E+000	7	...........	0
	510	51.1	9.93174E-003	1.11350E-006	0.00000E+000	9.98235E-003	0.00000E+000	7	...........	0
	512	51.3	1.19327E-002	1.09383E-006	0.00000E+000	1.19824E-002	0.00000E+000	7	...........	0
	514	51.5	1.39247E-002	1.11183E-006	0.00000E+000	1.39825E-002	0.00000E+000	7	...........	0
	516	51.7	1.59778E-002	1.15985E-006	0.00000E+000	1.59826E-002	0.00000E+000	7	...........	0
	518	51.9	1.79197E-002	1.16885E-006	0.00000E+000	1.79827E-002	0.00000E+000	7	...........	0
	520	52.1	1.99267E-002	1.16818E-006	0.00000E+000	1.99828E-002	0.00000E+000	7	...........	0
	522	52.3	2.19127E-002	1.27855E-006	0.00000E+000	2.19828E-002	0.00000E+000	7	...........	0
	524	52.5	2.39227E-002	1.25454E-006	0.00000E+000	2.39829E-002	0.00000E+000	7	...........	0
	526	52.7	2.58956E-002	1.32823E-006	0.00000E+000	2.59830E-002	0.00000E+000	7	...........	0
	528	52.9	2.79955E-002	1.26454E-006	0.00000E+000	2.79831E-002	0.00000E+000	7	...........	0
	530	53.1	2.99274E-002	1.30189E-006	0.00000E+000	2.99832E-002	0.00000E+000	7	...........	0
	532	53.3	3.19194E-002	1.37457E-006	0.00000E+000	3.19833E-002	0.00000E+000	7	...........	0
	534	53.5	3.39414E-002	1.32022E-006	0.00000E+000	3.39833E-002	0.00000E+000	7	...........	0
	536	53.7	3.59434E-002	1.36557E-006	0.00000E+000	3.59834E-002	0.00000E+000	7	...........	0
	538	53.9	3.79254E-002	1.37390E-006	0.00000E+000	3.79835E-002	0.00000E+000	7	...........	0
	540	54.1	3.99574E-002	1.43125E-006	0.00000E+000	3.99836E-002	0.00000E+000	7	...........	0
	542	54.3	4.19794E-002	1.46293E-006	0.00000E+000	4.19837E-002	0.00000E+000	7	...........	0
	544	54.5	4.39514E-002	1.43292E-006	0.00000E+000	4.39837E-002	0.00000E+000	7	...........	0
	546	54.7	4.59534E-002	1.52528E-006	0.00000E+000	4.59838E-002	0.00000E+000	7	...........	0
	548	54.9	4.79854E-002	1.49160E-006	0.00000E+000	4.79839E-002	0.00000E+000	7	...........	0
	550	55.1	4.99373E-002	1.53061E-006	0.00000E+000	4.99840E-002	0.00000E+000	7	...........	0
	552	55.3	5.19393E-002	1.56963E-006	0.00000E+000	5.19841E-002	0.00000E+000	7	...........	0
	554	55.5	5.39113E-002	1.54428E-006	0.00000E+000	5.39842E-002	0.00000E+000	7	...........	0
	556	55.7	5.59133E-002	1.58663E-006	0.00000E+000	5.59842E-002	0.00000E+000	7	...........	0
	558	55.9	5.79153E-002	1.63564E-006	0.00000E+000	5.79843E-002	0.00000E+000	7	...........	0
	560	56.1	5.99373E-002	1.66865E-006	0.00000E+000	5.99844E-002	0.00000E+000	7	...........	0
	562	56.3	6.19192E-002	1.69599E-006	0.00000E+000	6.19845E-002	0.00000E+000	7	...........	0
	564	56.5	6.39212E-002	1.69733E-006	0.00000E+000	6.39846E-002	0.00000E+000	7	...........	0
	566	56.7	6.59332E-002	1.71833E-006	0.00000E+000	6.59846E-002	0.00000E+000	7	...........	0
	568	56.9	6.79553E-002	1.69433E-006	0.00000E+000	6.79847E-002	0.00000E+000	7	...........	0
	570	57.1	6.99272E-002	1.71667E-006	0.00000E+000	6.99848E-002	0.00000E+000	7	...........	0
	572	57.3	7.19192E-002	1.72700E-006	0.00000E+000	7.19849E-002	0.00000E+000	7	...........	0
	574	57.5	7.39913E-002	1.67399E-006	0.00000E+000	7.39850E-002	0.00000E+000	7	...........	0
	576	57.7	7.60333E-002	1.68366E-006	0.00000E+000	7.59851E-002	0.00000E+000	7	...........	0
	578	57.9	7.79852E-002	1.69299E-006	0.00000E+000	7.79851E-002	0.00000E+000	7	...........	0
	580	58.1	7.99572E-002	1.65665E-006	0.00000E+000	7.99852E-002	0.00000E+000	7	...........	0
	582	58.3	8.19292E-002	1.62464E-006	0.00000E+000	8.19853E-002	0.00000E+000	7	...........	0
	584	58.5	8.40012E-002	1.59963E-006	0.00000E+000	8.39854E-002	0.00000E+000	7	...........	0
	586	58.7	8.59632E-002	1.60964E-006	0.00000E+000	8.59855E-002	0.00000E+000	7	...........	0
	588	58.9	8.79852E-002	1.52361E-006	0.00000E+000	8.79855E-002	0.00000E+000	7	...........	0
	590	59.1	8.99872E-002	1.48894E-006	0.00000E+000	8.99856E-002	0.00000E+000	7	...........	0
	592	59.3	9.19391E-002	1.53795E-006	0.00000E+000	9.19857E-002	0.00000E+000	7	...........	0
	594	59.5	9.39411E-002	1.51161E-006	0.00000E+000	9.39858E-002	0.00000E+000	7	...........	0
	596	59.7	9.59531E-002	1.51261E-006	0.00000E+000	9.59859E-002	0.00000E+000	7	...........	0
	598	59.9	9.79251E-002	1.48127E-006	0.00000E+000	9.79860E-002	0.00000E+000	7	...........	0
	600	60.1	9.99571E-002	1.52328E-006	0.00000E+000	9.99860E-002	0.00000E+000	7	...........	0
	602	60.3	1.01929E-001	1.49094E-006	0.00000E+000	1.01986E-001	0.00000E+000	7	...........	0
	604	60.5	1.03931E-001	1.56996E-006	0.00000E+000	1.03986E-001	0.00000E+000	7	...........	0
	606	60.7	1.05923E-001	1.56762E-006	0.00000E+000	1.05986E-001	0.00000E+000	7	...........	0
	608	60.9	1.07955E-001	1.57063E-006	0.00000E+000	1.07986E-001	0.00000E+000	7	...........	0
	610	61.1	1.09927E-001	1.59163E-006	0.00000E+000	1.09986E-001	0.00000E+000	7	...........	0
	612	61.3	1.11909E-001	1.63898E-006	0.00000E+000	1.11987E-001	0.00000E+000	7	...........	0
	614	61.5	1.13931E-001	1.66365E-006	0.00000E+000	1.13987E-001	0.00000E+000	7	...........	0
	616	61.7	1.15903E-001	1.67199E-006	0.00000E+000	1.15987E-001	0.00000E+000	7	...........	0
	618	61.9	1.17925E-001	1.70766E-006	0.00000E+000	1.17987E-001	0.00000E+000	7	...........	0
	620	62.1	1.19917E-001	1.78268E-006	0.00000E+000	1.19987E-001	0.00000E+000	7	...........	0
	622	62.3	1.21899E-001	1.71000E-006	0.00000E+000	1.21987E-001	0.00000E+000	7	...........	0
	624	62.5	1.23951E-001	1.80936E-006	0.00000E+000	1.23987E-001	0.00000E+000	7	...........	0
	626	62.7	1.25913E-001	1.80336E-006	0.00000E+000	1.25987E-001	0.00000E+000	7	...........	0
	628	62.9	1.27925E-001	1.84470E-006	0.00000E+000	1.27987E-001	0.00000E+000	7	...........	0
	630	63.1	1.29907E-001	1.84103E-006	0.00000E+000	1.29987E-001	0.00000E+000	7	...........	0
	632	63.3	1.31889E-001	1.86104E-006	0.00000E+000	1.31987E-001	0.00000E+000	7	...........	0
	634	63.5	1.33921E-001	1.89705E-006	0.00000E+000	1.33987E-001	0.00000E+000	7	...........	0
	636	63.7	1.35903E-001	1.90872E-006	0.00000E+000	1.35988E-001	0.00000E+000	7	...........	0
	638	63.9	1.37935E-001	1.88705E-006	0.00000E+000	1.37988E-001	0.00000E+000	7	...........	0
	640	64.1	1.39947E-001	1.95306E-006	0.00000E+000	1.39988E-001	0.00000E+000	7	...........	0
	642	64.3	1.41969E-001	1.95140E-006	0.00000E+000	1.41988E-001	0.00000E+000	7	...........	0
	644	64.5	1.43951E-001	1.96040E-006	0.00000E+000	1.43988E-001	0.00000E+000	7	...........	0
	646	64.7	1.45943E-001	1.92906E-006	0.00000E+000	1.45988E-001	0.00000E+000	7	...........	0
	648	64.9	1.47945E-001	1.95140E-006	0.00000E+000	1.47988E-001	0.00000E+000	7	...........	0
	650	65.1	1.49977E-001	1.93773E-006	0.00000E+000	1.49988E-001	0.00000E+000	7	...........	0
	652	65.3	1.51939E-001	1.90605E-006	0.00000E+000	1.51988E-001	0.00000E+000	7	...........	0
	654	65.5	1.53951E-001	1.96807E-006	0.00000E+000	1.53988E-001	0.00000E+000	7	...........	0
	656	65.7	1.55973E-001	1.99207E-006	0.00000E+000	1.55988E-001	0.00000E+000	7	...........	0
	658	65.9	1.57945E-001	1.91272E-006	0.00000E+000	1.57988E-001	0.00000E+000	7	...........	0
	660	66.1	1.59917E-001	1.94239E-006	0.00000E+000	1.59988E-001	0.00000E+000	7	...........	0
	662	66.3	1.61939E-001	1.92139E-006	0.00000E+000	1.61989E-001	0.00000E+000	7	...........	0
	664	66.5	1.63941E-001	1.97440E-006	0.00000E+000	1.63989E-001	0.00000E+000	7	...........	0
	666	66.7	1.65943E-001	1.90372E-006	0.00000E+000	1.65989E-001	0.00000E+000	7	...........	0
	668	66.9	1.67965E-001	1.92239E-006	0.00000E+000	1.67989E-001	0.00000E+000	7	...........	0
	670	67.1	1.69957E-001	1.93706E-006	0.00000E+000	1.69989E-001	0.00000E+000	7	...........	0
	672	67.3	1.71949E-001	1.89105E-006	0.00000E+000	1.71989E-001	0.00000E+000	7	...........	0
	674	67.5	1.73911E-001	1.84337E-006	0.00000E+000	1.73989E-001	0.00000E+000	7	...........	0
	676	67.7	1.75933E-001	1.86004E-006	0.00000E+000	1.75989E-001	0.00000E+000	7	...........	0
	678	67.9	1.77935E-001	1.88438E-006	0.00000E+000	1.77989E-001	0.00000E+000	7	...........	0
	680	68.1	1.79937E-001	1.87604E-006	0.00000E+000	1.79989E-001	0.00000E+000	7	...........	0
	682	68.3	1.81979E-001	1.84804E-006	0.00000E+000	1.81989E-001	0.00000E+000	7	...........	0
	684	68.5	1.83951E-001	1.87371E-006	0.00000E+000	1.83989E-001	0.00000E+000	7	...........	0
	686	68.7	1.85963E-001	1.79835E-006	0.00000E+000	1.85990E-001	0.00000E+000	7	...........	0
	688	68.9	1.87925E-001	1.88338E-006	0.00000E+000	1.87990E-001	0.00000E+000	7	...........	0
	690	69.1	1.89957E-001	1.83937E-006	0.00000E+000	1.89990E-001	0.00000E+000	7	...........	0
	692	69.3	1.91969E-001	1.83603E-006	0.00000E+000	1.91990E-001	0.00000E+000	7	...........	0
	694	69.5	1.93921E-001	1.84503E-006	0.00000E+000	1.93990E-001	0.00000E+000	7	...........	0
	696	69.7	1.95923E-001	1.86937E-006	0.00000E+000	1.95990E-001	0.00000E+000	7	...........	0
	698	69.9	1.97905E-001	1.90939E-006	0.00000E+000	1.97990E-001	0.00000E+000	7	...........	0
	700	70.1	1.99917E-001	1.99808E-006	0.00000E+000	1.99990E-001	0.00000E+000	7	...........	0
	702	70.3	2.01909E-001	1.91439E-006	0.00000E+000	2.01990E-001	0.00000E+000	7	...........	0
	704	70.5	2.03921E-001	1.93439E-006	0.00000E+000	2.03990E-001	0.00000E+000	7	...........	0
	706	70.7	2.05933E-001	1.91172E-006	0.00000E+000	2.05990E-001	0.00000E+000	7	...........	0
	708	70.9	2.07915E-001	1.98474E-006	0.00000E+000	2.07990E-001	0.00000E+000	7	...........	0
	710	71.1	2.09917E-001	1.98874E-006	0.00000E+000	2.09991E-001	0.00000E+000	7	...........	0
	712	71.3	2.11909E-001	2.07176E-006	0.00000E+000	2.11991E-001	0.00000E+000	7	...........	0
	714	71.5	2.13891E-001	2.07943E-006	0.00000E+000	2.13991E-001	0.00000E+000	7	...........	0
	716	71.7	2.15903E-001	2.12278E-006	0.00000E+000	2.15991E-001	0.00000E+000	7	...........	0
	718	71.9	2.17915E-001	2.10444E-006	0.00000E+000	2.17991E-001	0.00000E+000	7	...........	0
	720	72.1	2.19886E-001	2.17379E-006	0.00000E+000	2.19991E-001	0.00000E+000	7	...........	0
	722	72.3	2.21888E-001	2.18846E-006	0.00000E+000	2.21991E-001	0.00000E+000	7	...........	0
	724	72.5	2.23910E-001	2.23214E-006	0.00000E+000	2.23991E-001	0.00000E+000	7	...........	0
	726	72.7	2.25912E-001	2.26082E-006	0.00000E+000	2.25991E-001	0.00000E+000	7	...........	0
	728	72.9	2.27904E-001	2.24981E-006	0.00000E+000	2.27991E-001	0.00000E+000	7	...........	0
	730	73.1	2.29896E-001	2.27615E-006	0.00000E+000	2.29991E-001	0.00000E+000	7	...........	0
	732	73.3	2.31908E-001	2.29116E-006	0.00000E+000	2.31991E-001	0.00000E+000	7	...........	0
	734	73.5	2.33900E-001	2.29716E-006	0.00000E+000	2.33992E-001	0.00000E+000	7	...........	0
	736	73.7	2.35912E-001	2.23914E-006	0.00000E+000	2.35992E-001	0.00000E+000	7	...........	0
	738	73.9	2.37914E-001	2.22681E-006	0.00000E+000	2.37992E-001	0.00000E+000	7	...........	0
	740	74.1	2.39926E-001	2.22547E-006	0.00000E+000	2.39992E-001	0.00000E+000	7	...........	0
	742	74.3	2.41918E-001	2.22514E-006	0.00000E+000	2.41992E-001	0.00000E+000	7	...........	0
	744	74.5	2.43920E-001	2.13845E-006	0.00000E+000	2.43992E-001	0.00000E+000	7	...........	0
	746	74.7	2.45932E-001	2.17646E-006	0.00000E+000	2.45992E-001	0.00000E+000	7	...........	0
	748	74.9	2.47924E-001	2.16179E-006	0.00000E+000	2.47992E-001	0.00000E+000	7	...........	0
	750	75.1	2.49966E-001	2.10744E-006	0.00000E+000	2.49992E-001	0.00000E+000	7	...........	0
	752	75.3	2.51948E-001	2.06810E-006	0.00000E+000	2.51992E-001	0.00000E+000	7	...........	0
	754	75.5	2.53930E-001	2.08443E-006	0.00000E+000	2.53992E-001	0.00000E+000	7	...........	0
	756	75.7	2.55932E-001	2.09344E-006	0.00000E+000	2.55992E-001	0.00000E+000	7	...........	0
	758	75.9	2.57894E-001	2.06910E-006	0.00000E+000	2.57992E-001	0.00000E+000	7	...........	0
	760	76.1	2.59886E-001	2.09644E-006	0.00000E+000	2.59993E-001	0.00000E+000	7	...........	0
	762	76.3	2.61848E-001	2.12478E-006	0.00000E+000	2.61993E-001	0.00000E+000	7	...........	0
	764	76.5	2.63900E-001	2.12945E-006	0.00000E+000	2.63993E-001	0.00000E+000	7	...........	0
	766	76.7	2.65882E-001	2.12344E-006	0.00000E+000	2.65993E-001	0.00000E+000	7	...........	0
	768	76.9	2.68055E-001	2.19046E-006	0.00000E+000	2.67993E-001	0.00000E+000	7	...........	0
	770	77.1	2.70157E-001	2.18379E-006	0.00000E+000	2.69993E-001	0.00000E+000	7	...........	0